SpO2,acc_magnitude,alt,ax,ay,az,course,gx,gy,gz,hdop,heart_rate,ir,lat_scaled,lon_scaled,pitch,red,roll,sats,speed,temp,time,yaw
97,11.1,848.6,-1.04,-2.19,-10.84,14,0.02,-0.2,0.05,1.42,78,124187,129341120,775364281,-11.35,64790,174.54,11,0.72,33.24,2025-12-29T09:44:54.660537518Z,-83.15
98,11.11,846.1,-1.63,-2.28,-10.75,14,-0.02,0,0,1.08,72,124147,129341128,775364326,-11.86,64735,171.37,11,0.67,33.14,2025-12-29T09:44:57.726429081Z,174.99
97,11.22,845.6,-1.66,-2.33,-10.85,14,-0.02,0.01,0,1.49,72,124181,129341178,775364303,-11.98,64762,171.29,11,1.02,33.24,2025-12-29T09:45:01.107083073Z,157.73
97,11.02,844.9,-1.64,-2.21,-10.67,14,-0.02,0,0,1.08,71,124343,129341203,775364286,-11.57,64793,171.27,11,0.07,33.09,2025-12-29T09:45:04.077973641Z,171.94
98,11.07,844.9,-1.66,-2.31,-10.69,14,-0.01,0,0,1.08,73,124355,129341203,775364286,-12.06,64804,171.19,11,0.07,33.19,2025-12-29T09:45:07.166843739Z,174.75
96,11.03,844.9,-1.62,-2.29,-10.67,14,-0.02,0,0,1.08,74,124221,129341203,775364286,-11.98,64795,171.35,11,0.07,33.09,2025-12-29T09:45:10.30190027Z,164.52
98,11.08,844.9,-1.62,-2.25,-10.73,14,-0.01,0,0,1.08,71,125125,129341203,775364286,-11.7,65549,171.4,11,0.07,33.09,2025-12-29T09:45:13.502470182Z,162.61
98,11.23,844.9,-5.07,-2.22,-9.77,14,-0.09,-0.49,0.04,1.08,70,124910,129341203,775364286,-11.39,65362,152.59,11,0.07,33.28,2025-12-29T09:45:16.56505501Z,-100.21
98,11.49,844.9,-4.69,-2.39,-10.22,14,-0.03,-0.78,0.11,1.08,74,123805,129341168,775364261,-11.99,64644,155.37,11,0.26,33.19,2025-12-29T09:45:19.638747951Z,-91.98
95,11.14,845.5,-1.73,-2.34,-10.75,14,-0.03,-0.07,0.02,1.21,70,123788,129341165,775364285,-12.13,64665,170.88,10,1.07,33.19,2025-12-29T09:45:22.72983016Z,-114.98
96,11.16,845.1,-1.7,-2.25,-10.8,14,-0.04,-0.13,0.02,1.45,73,123708,129341139,775364305,-11.65,64564,171.04,11,0.24,33.19,2025-12-29T09:45:25.778667087Z,-105.47
95,11.28,844.4,-0.99,-2.09,-11.04,14,-0.04,0.11,-0.03,1.21,75,123952,129341151,775364326,-10.66,64773,174.87,10,0.13,33.14,2025-12-29T09:45:28.846854373Z,110.99
98,11.22,844.7,-2.17,-2.31,-10.76,14,0.02,-0.22,0.05,1.45,75,124191,129341095,775364500,-11.89,64967,168.61,11,0.89,33.19,2025-12-29T09:45:31.921315573Z,-85.53
95,11.03,846.4,-1.89,-2.26,-10.63,14,-0.01,0.01,0,1.46,79,124443,129341095,775364500,-11.85,65019,169.89,10,0.89,33.24,2025-12-29T09:45:34.995169032Z,158.82
96,11.13,846.7,-1.97,-2.23,-10.73,14,-0.01,0,0,1.46,73,124273,129341083,775364525,-11.54,64859,169.62,10,0.89,33.24,2025-12-29T09:45:38.0850818Z,171.16
96,11.13,846.7,-0.23,-1.97,-10.95,14,-0.04,-0.6,0.11,1.46,73,125435,129341083,775364525,-10.21,65943,178.78,10,0.89,33.19,2025-12-29T09:45:41.132016037Z,-93.48
95,10.69,846.7,-5.15,-1.78,-9.2,14,-0.17,-0.27,-0.03,1.46,74,125396,129341083,775364525,-9.56,65785,150.76,10,0.89,33.19,2025-12-29T09:45:44.229970238Z,-122.45
96,10.82,846.7,-4.59,-2.13,-9.57,14,-0.03,0.69,-0.06,1.46,78,124616,129341083,775364525,-11.34,65269,154.38,10,0.89,33.24,2025-12-29T09:45:47.308250421Z,92.74
96,10.76,846.7,-2.35,-2.14,-10.28,14,-0.03,-1.15,0.17,1.46,78,124398,129341083,775364525,-11.48,64960,167.12,10,0.89,33.24,2025-12-29T09:45:50.422060567Z,-91.36
97,11.01,846.7,-2.07,-2.16,-10.6,14,0.05,-0.57,0.09,1.46,77,123949,129341083,775364525,-11.34,64729,168.97,10,0.89,33.28,2025-12-29T09:45:53.43556751Z,-85.41
98,10.74,846.7,-1.36,-1.99,-10.47,14,0.08,-0.27,0.07,1.46,74,123943,129341083,775364525,-10.69,64808,172.61,10,0.89,33.24,2025-12-29T09:45:56.512246572Z,-73.07
98,10.95,846.7,-1.73,-2.2,-10.59,14,0.11,-0.57,0.11,1.46,72,124270,129341175,775364570,-11.56,65013,170.74,10,0.69,33.33,2025-12-29T09:45:59.594224482Z,-78.98
97,11,846.7,-2.42,-2.21,-10.5,14,-0.02,0,0,1.46,75,124289,129341211,775364570,-11.56,64978,167.03,10,0.59,33.24,2025-12-29T09:46:03.368667686Z,165.1
95,11.1,846.8,-2.45,-2.21,-10.6,14,-0.02,0,0.01,1.21,79,124275,129341150,775364553,-11.46,65003,166.99,10,0.69,33.19,2025-12-29T09:46:06.748671579Z,165.76
98,10.94,846.7,-2.38,-2.16,-10.46,14,-0.01,0,0,1.52,70,124157,129341155,775364503,-11.39,64967,167.2,10,0.06,33.28,2025-12-29T09:46:09.813730541Z,-174.4
95,11.05,846.7,-2.39,-2.21,-10.55,14,-0.01,0,0,1.21,70,125029,129341165,775364485,-11.55,65817,167.22,10,0.31,33.24,2025-12-29T09:46:12.899157403Z,-175.33
97,10.76,846.9,-5.22,-1.87,-9.22,14,-0.07,-0.2,0,1.47,73,124501,129341173,775364493,-10.04,65047,150.49,10,0.31,33.28,2025-12-29T09:46:15.956311332Z,-109.03
96,10.94,846.3,-2.46,-2.16,-10.44,14,0.09,0.81,-0.1,1.47,77,124041,129341200,775364480,-11.4,64756,166.72,10,0.31,33.19,2025-12-29T09:46:19.045373966Z,83.73
98,10.99,846.3,-0.79,-2.2,-10.74,14,-0.03,0.55,-0.1,1.47,72,124136,129341195,775364486,-11.56,64801,175.79,10,0.31,33.24,2025-12-29T09:46:22.104038034Z,92.81
98,11.1,846.3,-1.21,-2.22,-10.81,14,-0.01,-0.03,0.01,1.47,76,124175,129341195,775364486,-11.55,64740,173.6,10,0.31,33.14,2025-12-29T09:46:25.179253191Z,-103.6
96,11.17,846.3,-1.33,-2.17,-10.87,14,-0.02,0.02,0,1.47,74,124076,129341195,775364486,-11.22,64737,173.01,10,0.31,33.14,2025-12-29T09:46:28.241908635Z,137.35
95,11.02,846.3,-0.73,-2.09,-10.8,14,0.01,-0.13,0.03,1.47,70,124164,129341195,775364486,-10.93,64811,176.14,10,0.31,33.28,2025-12-29T09:46:31.327056793Z,-85.49
95,11.02,846.3,-1.79,-2.2,-10.65,14,-0.02,0,0,1.47,79,124104,129341195,775364486,-11.52,64787,170.47,10,0.31,33.28,2025-12-29T09:46:34.595662691Z,-179.53
96,11,846.3,-1.81,-2.23,-10.62,14,-0.02,-0.02,0,1.47,70,124048,129341195,775364486,-11.7,64782,170.34,10,0.31,33.19,2025-12-29T09:46:37.672818871Z,-139.65
98,11.03,849.6,-1.76,-2.32,-10.64,14,-0.01,0,0,1.48,72,124129,129341016,775364638,-12.13,64801,170.6,11,0.74,33.28,2025-12-29T09:46:40.746974559Z,164.26
97,11.09,849,-1.89,-2.28,-10.69,14,-0.02,0.01,0,1.48,79,123606,129341041,775364651,-11.87,64516,169.98,11,1.76,33.28,2025-12-29T09:46:43.809304177Z,162.6
95,11.01,848.9,-1.04,-2.06,-10.76,14,0.03,-0.1,0.04,1.48,76,123989,129341041,775364685,-10.79,64815,174.5,11,0.11,33.24,2025-12-29T09:46:46.884080445Z,-73.46
95,11.4,849.3,-3.59,-2.52,-10.52,14,-0.05,-0.15,0,1.48,74,124178,129341034,775364648,-12.76,64912,161.16,11,0.59,33.14,2025-12-29T09:46:49.957696005Z,-107.85
96,11.1,849.2,-1.9,-2.22,-10.71,14,-0.02,-0.01,0,1.48,76,124353,129341036,775364595,-11.56,65431,169.92,11,0.59,33.24,2025-12-29T09:46:53.03103317Z,-150.76
98,11.14,849.6,-1.72,-2.26,-10.77,14,-0.02,0.02,0,1.48,75,123961,129341015,775364575,-11.7,65141,170.91,11,0.59,33.28,2025-12-29T09:46:56.096367002Z,126.07
96,11.12,849.6,-0.95,-2.18,-10.86,14,-0.05,0.05,-0.02,1.48,70,124398,129341015,775364575,-11.28,65279,175,11,0.59,33.28,2025-12-29T09:46:59.164039653Z,134.17
95,11.26,849.6,-2.04,-2.33,-10.83,14,-0.02,0.24,-0.03,1.48,79,124410,129341015,775364575,-11.96,65274,169.34,11,0.59,33.19,2025-12-29T09:47:02.244574526Z,93.81
95,11.08,849.6,-1.68,-2.24,-10.72,14,-0.04,0.14,-0.03,1.48,70,124336,129341015,775364575,-11.66,65093,171.1,11,0.59,33.28,2025-12-29T09:47:05.329242446Z,107.63
96,11.22,849.6,-1.85,-2.26,-10.84,14,-0.01,0,0,1.48,76,124408,129341015,775364575,-11.63,65110,170.31,11,0.59,33.24,2025-12-29T09:47:08.379651636Z,163.61
97,11.04,849.6,-1.81,-2.2,-10.67,14,-0.01,0.01,0,1.48,79,124348,129341015,775364575,-11.47,65139,170.35,11,0.59,33.24,2025-12-29T09:47:11.45929579Z,143.72
97,11.11,849.6,-1.8,-2.21,-10.74,14,-0.02,0,0,1.48,77,124299,129341015,775364575,-11.47,65097,170.51,11,0.59,33.33,2025-12-29T09:47:14.547125919Z,-175.14
97,11.17,849.6,-1.86,-2.21,-10.79,8,-0.01,0,0.01,1.48,73,124233,129341153,775364513,-11.43,65058,170.24,11,0.31,33.28,2025-12-29T09:47:18.016287011Z,160.59
95,11.04,848.1,-1.88,-2.25,-10.64,8,-0.02,0,0,1.49,70,124257,129341158,775364483,-11.76,68552,169.98,11,0.07,33.19,2025-12-29T09:47:21.712927245Z,173.77
97,11.09,848.1,-0.07,4.42,-10.18,8,-0.98,-0.18,-0.6,1.49,75,122993,129341158,775364483,23.49,67785,179.58,11,0.07,33.19,2025-12-29T09:47:25.389892637Z,-169.83
95,10.32,846,1.7,8.79,-5.12,8,-0.13,-0.02,0.11,1.21,73,123053,129341256,775364468,58.45,67858,-161.62,10,0.07,33.33,2025-12-29T09:47:28.675291271Z,-172.05
98,10.21,846,1.69,8.66,-5.15,8,-0.02,0.01,0,1.21,75,123113,129341256,775364468,57.96,67901,-161.81,10,0.07,33.28,2025-12-29T09:47:32.144855384Z,154.75
96,10.22,844,1.65,8.63,-5.21,9,-0.01,0.01,0,1.49,74,123122,129341259,775364470,57.67,67906,-162.45,11,0.61,33.19,2025-12-29T09:47:36.045840835Z,145.9
96,10.75,844,1.61,9.08,-5.52,9,0.01,0.08,-0.03,1.49,71,123117,129341259,775364470,57.64,68035,-163.73,11,0.61,33.24,2025-12-29T09:47:39.944444504Z,85.66
95,10.3,844,1.65,8.69,-5.28,9,-0.01,0.15,-0.04,1.49,78,123042,129341259,775364470,57.5,68017,-162.65,11,0.61,33.28,2025-12-29T09:47:43.611493144Z,93.96
97,10.19,844,1.64,8.6,-5.21,9,-0.01,0,0.01,1.49,76,122972,129341259,775364470,57.59,67953,-162.47,11,0.61,33.19,2025-12-29T09:47:47.30078588Z,160.02
95,10.31,844.5,1.6,8.7,-5.31,9,-0.01,0.01,0.01,1.5,72,122934,129341030,775364481,57.5,67934,-163.25,11,0.39,33.28,2025-12-29T09:47:50.999310634Z,158.5
98,10.29,844.5,1.63,8.69,-5.27,9,-0.03,0.02,0,1.5,73,122876,129340985,775364510,57.59,67931,-162.8,11,0.63,33.19,2025-12-29T09:47:54.896809577Z,141.85
98,10.24,844.5,1.61,8.64,-5.26,9,-0.02,0,0,1.5,71,122860,129340985,775364510,57.51,67977,-163,11,0.63,33.28,2025-12-29T09:47:58.771583452Z,172.92
96,10.27,844.5,1.61,8.69,-5.22,9,-0.01,0,0.01,1.5,76,122855,129340985,775364510,57.86,67970,-162.84,11,0.63,33.19,2025-12-29T09:48:02.275066524Z,162.97
95,10.24,844.5,1.63,8.66,-5.21,9,-0.01,0.01,0.02,1.5,76,122857,129340985,775364510,57.77,67977,-162.64,11,0.63,33.28,2025-12-29T09:48:05.331618948Z,160.28
98,10.24,844.5,1.64,8.65,-5.23,9,-0.01,0,0,1.5,71,122846,129340985,775364510,57.63,67933,-162.58,11,0.63,33.19,2025-12-29T09:48:09.019710515Z,170.63
98,10.27,844.5,1.59,8.72,-5.2,9,-0.01,0,0,1.5,76,122784,129340985,775364510,58.06,67955,-162.96,11,0.63,33.38,2025-12-29T09:48:12.929360533Z,164.48
97,10.29,844.5,1.59,8.7,-5.26,9,-0.01,0.01,0,1.5,77,122749,129340985,775364510,57.7,67976,-163.2,11,0.63,33.28,2025-12-29T09:48:16.605029114Z,159.93
96,10.25,844.5,1.58,8.64,-5.27,9,-0.02,0,0,1.5,74,122750,129340985,775364510,57.51,67975,-163.34,11,0.63,33.19,2025-12-29T09:48:20.541473931Z,171.25
95,10.26,844.5,1.61,8.66,-5.26,9,-0.02,0,0,1.5,77,122725,129340985,775364510,57.57,67991,-163,11,0.63,33.28,2025-12-29T09:48:23.968673365Z,174.19
95,10.27,850.2,1.62,8.71,-5.19,9,-0.01,-0.01,0.01,1.51,74,122681,129340653,775364903,58.03,68177,-162.63,9,0.93,33.24,2025-12-29T09:48:27.654243276Z,-154.77
96,10.03,850.2,1.58,8.25,-5.48,9,0.02,-0.07,0,1.51,72,122632,129340653,775364903,55.35,68073,-163.89,9,0.93,33.19,2025-12-29T09:48:30.929993309Z,-71.84
96,10.46,849.8,1.55,8.88,-5.31,9,-0.04,0,0.02,1.52,79,122616,129340765,775364836,58.08,68140,-163.77,11,0.13,33.09,2025-12-29T09:48:34.820917447Z,177.93
96,10.03,850.2,1.71,8.36,-5.26,9,0.02,-0.04,0,1.52,74,122616,129340830,775364778,56.52,68165,-161.97,11,0.13,33.28,2025-12-29T09:48:38.103099274Z,-66.9
96,10.23,851.3,1.65,8.51,-5.43,9,0,0,-0.02,1.54,72,122590,129340785,775364733,56.28,68123,-163.11,10,0.94,33.24,2025-12-29T09:48:41.993247931Z,-42.58
98,10.28,851.3,1.62,8.64,-5.34,9,-0.02,0,0,1.54,70,122660,129340785,775364733,57.15,68250,-163.13,10,0.94,33.19,2025-12-29T09:48:45.485144324Z,170.75
95,10.31,851.3,1.52,8.57,-5.53,9,-0.01,0,0.01,1.54,76,122651,129340785,775364733,56.23,68192,-164.67,10,0.94,33.28,2025-12-29T09:48:48.753633062Z,-173.12
96,10.34,851.2,1.62,8.7,-5.35,9,-0.01,0,0.01,1.52,74,122671,129340843,775364796,57.28,68246,-163.16,11,0.69,33.38,2025-12-29T09:48:52.455176001Z,-177.4
95,10.24,851.3,1.56,8.6,-5.34,9,-0.02,0,0,1.52,78,122673,129340823,775364816,57.13,68243,-163.72,11,0.69,33.24,2025-12-29T09:48:56.318644078Z,167.62
98,10.23,849.5,1.58,8.55,-5.39,9,-0.01,0,0.01,1.52,74,122663,129340838,775364826,56.69,68243,-163.67,11,0.28,33.33,2025-12-29T09:48:59.812243283Z,-150.55
95,10.25,847.9,1.58,8.61,-5.32,9,-0.02,0,0.01,2,74,122673,129340813,775364895,57.19,68262,-163.46,10,0.17,33.19,2025-12-29T09:49:03.485879287Z,169.62
98,10.29,847.9,1.57,8.66,-5.33,9,-0.02,0,0.01,2,70,122651,129340813,775364895,57.32,68270,-163.56,10,0.17,33.24,2025-12-29T09:49:06.998737846Z,167.52
96,10.27,847.6,1.59,8.59,-5.4,9,-0.02,0,0.01,1.53,70,122638,129340856,775364869,56.74,68268,-163.61,10,0.37,33.33,2025-12-29T09:49:10.671241865Z,167.22
98,10.02,847.6,1.43,8.23,-5.52,9,-0.02,-0.07,-0.02,1.53,75,122627,129340856,775364869,55.27,68301,-165.44,10,0.37,33.28,2025-12-29T09:49:13.734083408Z,-105.06
97,10.33,848.1,1.62,8.64,-5.42,9,-0.03,0.01,0,1.53,77,122601,129340958,775364803,56.78,68315,-163.41,10,0.22,33.24,2025-12-29T09:49:17.236637639Z,161.75
95,10.52,848.5,1.56,8.78,-5.57,9,-0.01,0.08,-0.02,1.53,79,122613,129340998,775364753,56.61,68293,-164.38,10,0.22,33.24,2025-12-29T09:49:20.709860509Z,94.27
98,10.33,848.5,1.53,8.71,-5.34,9,-0.05,-0.02,0.01,1.53,71,122566,129340998,775364753,57.45,68348,-164.02,10,0.22,33.24,2025-12-29T09:49:23.97773917Z,-158.73
98,10.37,847.1,1.61,8.73,-5.36,9,-0.02,0.1,-0.02,1.53,79,122509,129340991,775364718,57.33,68308,-163.25,9,0.61,33.19,2025-12-29T09:49:27.677625917Z,98.69
97,10.24,847.1,1.53,8.57,-5.39,9,-0.01,0,0,1.53,71,122521,129340991,775364718,56.84,68303,-164.2,9,0.61,33.19,2025-12-29T09:49:31.551361485Z,163.07
97,10.41,847.6,1.64,8.78,-5.35,9,-0.02,0.01,0.01,1.54,78,122510,129341030,775364666,57.51,68349,-162.9,9,0.61,33.24,2025-12-29T09:49:37.706485763Z,164.6
97,10.29,847.5,1.54,8.64,-5.37,9,-0.02,0,0.01,2.02,70,122437,129341006,775364720,57.12,68325,-164.03,9,0.33,33.24,2025-12-29T09:49:40.772100607Z,175.99
97,9.83,847,1.7,8.23,-5.1,9,0.01,0.04,0.01,1.54,70,122509,129341056,775364736,56.82,68364,-161.55,10,0.15,33.28,2025-12-29T09:49:47.587737083Z,82.07
95,10.31,847,1.61,8.61,-5.44,9,-0.03,0.02,-0.01,1.54,79,122506,129341056,775364736,56.62,68375,-163.52,10,0.15,33.24,2025-12-29T09:49:51.018818226Z,149.82
96,10.3,847.9,1.6,8.61,-5.41,9,-0.01,0.01,0,1.54,78,122442,129341053,775364843,56.78,68381,-163.48,10,0.15,33.24,2025-12-29T09:49:54.487478185Z,119.74
98,10.25,847.9,1.61,8.52,-5.45,9,-0.02,0,0.01,1.54,77,122480,129341053,775364843,56.3,68374,-163.53,10,0.15,33.24,2025-12-29T09:49:58.186146403Z,173.33
97,10.38,847.9,1.58,8.69,-5.46,9,-0.02,0.02,0,1.54,70,122455,129341028,775364871,56.8,68364,-163.86,10,0.28,33.24,2025-12-29T09:50:01.867174433Z,139.5
98,10.25,847.9,1.62,8.61,-5.31,9,-0.02,0,0.01,1.54,77,122273,129341104,775364935,57.17,67960,-163.01,10,0.46,33.28,2025-12-29T09:50:05.142667155Z,-172.15
96,10.21,850.2,1.7,8.73,-5.01,9,0.01,-0.01,0.01,1.55,74,122398,129341104,775364935,58.77,68302,-161.32,10,0.46,33.28,2025-12-29T09:50:08.425997219Z,-29.21
97,10.28,850.2,1.69,8.73,-5.16,9,0,-0.05,0.02,1.55,76,122386,129341104,775364935,58.12,68340,-161.85,10,0.46,33.28,2025-12-29T09:50:12.1189099Z,-94.16
96,10.27,850.2,1.55,8.64,-5.34,9,-0.02,0,0,1.55,71,122379,129341103,775364975,57.25,68348,-163.84,10,0.09,33.28,2025-12-29T09:50:15.819484988Z,-178.68
97,10.31,851.5,1.59,8.62,-5.43,9,-0.03,0.01,0.02,1.55,78,122365,129341015,775364995,56.69,68387,-163.72,11,0.09,33.24,2025-12-29T09:50:19.511819075Z,168.25
95,10.34,851.5,1.53,8.62,-5.5,9,-0.02,0.01,0.01,1.55,71,122390,129341015,775364995,56.48,68372,-164.45,11,0.09,33.24,2025-12-29T09:50:23.370639927Z,161.26
95,10.49,852,1.5,8.93,-5.3,9,0,0.02,-0.01,1.55,75,122233,129340983,775365023,58.34,68463,-164.21,10,0.43,33.24,2025-12-29T09:50:26.643041517Z,101.44
96,12.79,852.9,1.89,9.07,-8.82,9,1.34,0.41,0.32,1.56,72,123517,129341046,775364916,45.15,66754,-167.89,10,1.56,33.28,2025-12-29T09:50:29.921351658Z,17.15
97,11.13,851.2,5.73,1.36,-9.44,9,0,0.01,-0.01,1.56,72,122762,129341041,775364853,7.03,65118,-148.74,10,1.56,33.19,2025-12-29T09:50:33.221442604Z,101.75
97,11.13,850.3,6.33,2.03,-8.92,9,-0.02,0.01,0,1.56,77,122423,129341003,775364791,10.49,64667,-144.63,9,1.56,33.24,2025-12-29T09:50:36.484512908Z,154.09
97,11.11,850.3,6.31,2.1,-8.9,9,-0.02,0,0,1.56,72,122168,129341003,775364791,10.91,64396,-144.67,9,1.56,33.24,2025-12-29T09:50:40.428665669Z,169.66
98,11.15,849.9,6.42,2.09,-8.87,9,-0.02,0,0.01,2.39,76,122033,129340970,775364718,10.8,64231,-144.11,9,0.54,33.33,2025-12-29T09:50:43.852211045Z,-172.98
96,11.12,849.9,6.45,2.32,-8.76,9,-0.04,0.01,0,2.39,74,121964,129340970,775364718,12.05,64196,-143.62,9,0.54,33.28,2025-12-29T09:50:47.322098622Z,162.21
97,11.05,848.6,6.34,2.16,-8.79,0,-0.01,-0.01,0.02,1.56,77,121927,129341166,775364603,11.25,64095,-144.2,11,1.15,33.19,2025-12-29T09:50:50.599294694Z,-143.88
96,11.08,848.6,6.44,2.23,-8.74,0,-0.02,0,0,1.56,70,121870,129341166,775364603,11.61,63950,-143.62,11,1.15,33.28,2025-12-29T09:50:54.080939524Z,170.38
95,11.11,848,6.39,2.26,-8.8,12,-0.02,0.01,0.01,1.56,70,121824,129341098,775364560,11.77,63908,-144.04,11,0.22,33.28,2025-12-29T09:50:57.395115003Z,150.66
98,11.1,848,6.32,2.21,-8.86,12,-0.04,0.02,0,1.56,75,122061,129341098,775364560,11.45,64244,-144.49,11,0.22,33.28,2025-12-29T09:51:00.859154995Z,148.98
97,11.11,847,6.21,1.95,-9,12,-0.03,0.04,-0.02,1.1,74,121913,129341071,775364563,10.09,63829,-145.39,11,0.44,33.33,2025-12-29T09:51:04.130284354Z,123.55
96,11.13,847.3,6.37,2,-8.9,12,-0.02,0,0,2.07,77,121838,129341038,775364575,10.37,63726,-144.43,10,0.44,33.24,2025-12-29T09:51:07.396925599Z,177.67
98,11.07,847.3,6.17,2.1,-8.94,12,-0.01,-0.01,0.01,2.07,73,121887,129341038,775364575,10.95,63693,-145.38,10,0.44,33.28,2025-12-29T09:51:11.106706262Z,-136.68
96,11.19,847.3,6.37,2.04,-8.97,12,-0.02,0,0,2.07,70,121942,129340936,775364498,10.49,63633,-144.62,10,0.5,33.28,2025-12-29T09:51:14.566395825Z,178.11
96,11.11,847.3,6.37,2.01,-8.88,12,-0.02,0.01,0.01,2.07,75,123039,129340936,775364498,10.4,66763,-144.36,10,0.5,33.28,2025-12-29T09:51:18.148710791Z,156.56
98,11.37,846.8,0.7,3.08,-10.92,12,-0.02,-0.91,0.26,1.62,71,123937,129341020,775364461,15.7,67144,-176.31,9,1.07,33.28,2025-12-29T09:51:21.412062267Z,-91.36
98,11,846.8,5.24,-1.02,-9.61,12,0.18,-1.02,0.19,1.62,74,124288,129341020,775364461,-5.33,67677,-151.4,9,1.07,33.33,2025-12-29T09:51:24.803994506Z,-79.96
98,10.99,846.8,-2.16,-1.22,-10.71,12,-0.03,-0.05,0.01,1.62,72,124133,129341020,775364461,-6.38,67220,168.58,9,1.07,33.28,2025-12-29T09:51:28.287791848Z,-117.48
97,11.03,846.8,-1.8,-1.26,-10.81,12,0,0.39,-0.05,1.62,70,123037,129341020,775364461,-6.58,66115,170.56,9,1.07,33.28,2025-12-29T09:51:31.976042309Z,90.14
96,11.35,846.8,5.03,-1.21,-10.1,12,-0.01,0.11,-0.01,1.62,74,122923,129341195,775364341,-6.13,66196,-153.51,9,1.48,33.28,2025-12-29T09:51:35.454174822Z,97.31
96,11.34,846.8,4.56,-1.11,-10.32,12,0.03,-0.76,0.1,1.62,78,122909,129341195,775364341,-5.61,66195,-156.18,9,1.48,33.19,2025-12-29T09:51:38.948781618Z,-87.95
95,11.44,846.8,4.54,-1.34,-10.41,12,-0.03,0.25,-0.03,1.62,74,122848,129341501,775364698,-6.71,66158,-156.42,9,2.85,33.42,2025-12-29T09:51:42.839085455Z,97.7
97,11.26,846.8,4.71,-1.18,-10.16,12,-0.03,0.09,-0.02,1.62,72,122719,129341501,775364698,-6.03,66134,-155.13,9,2.85,33.38,2025-12-29T09:51:46.529239125Z,105.45
96,11.1,846.8,5.06,-1.03,-9.82,12,-0.01,-0.03,0,1.62,76,122725,129341501,775364698,-5.32,66199,-152.73,9,2.85,33.28,2025-12-29T09:51:50.269779423Z,-111.54
95,11.42,840.8,4.78,-1.21,-10.3,12,-0.02,0.06,-0.01,1.59,79,122714,129341005,775365065,-6.09,66237,-155.11,10,1.98,33.28,2025-12-29T09:51:53.877153118Z,105.17
97,11.29,840.8,4.46,-1.19,-10.3,12,-0.02,0,0,1.59,79,122657,129341141,775364765,-6.03,66193,-156.6,10,0.02,33.33,2025-12-29T09:51:57.359134221Z,174.88
97,11.39,839.4,4.49,-1.23,-10.4,12,-0.02,0,0.01,1.59,74,122672,129341141,775364765,-6.21,66251,-156.63,10,0.02,33.28,2025-12-29T09:52:01.065768551Z,171.15
96,11.38,839.4,4.47,-1.14,-10.4,12,-0.02,0,0,1.59,73,122630,129341141,775364765,-5.74,66230,-156.73,10,0.02,33.33,2025-12-29T09:52:04.736442984Z,171.33
95,11.35,839.4,4.48,-1.26,-10.35,12,-0.02,0.16,-0.02,1.59,74,122685,129341141,775364765,-6.38,66259,-156.59,10,0.02,33.38,2025-12-29T09:52:08.534060186Z,97.64
97,11.26,838.7,4.53,-1.15,-10.25,16,-0.01,0,0.01,1.26,71,122571,129341166,775365200,-5.84,66143,-156.16,9,0.41,33.28,2025-12-29T09:52:11.91573771Z,-172.8
95,11.29,838.1,4.41,-1.27,-10.32,16,-0.02,0.03,-0.01,1.59,74,122496,129341491,775364995,-6.45,66200,-156.87,10,2.28,33.42,2025-12-29T09:52:15.402461114Z,118.45
96,11.29,838.1,4.45,-1.12,-10.32,16,-0.01,0,0,1.59,73,122757,129341491,775364995,-5.71,66575,-156.65,10,2.28,33.28,2025-12-29T09:52:18.45476452Z,-173.88
97,11.3,838.1,1.88,-1.34,-11.06,16,-0.04,-0.33,0.06,1.59,78,124375,129341526,775364553,-6.79,68016,-170.33,10,1.56,33.42,2025-12-29T09:52:21.73389208Z,-96.67
97,11.3,838.1,-3.11,-1.25,-10.79,16,-0.04,-0.31,0.05,1.59,70,124169,129341343,775364581,-6.35,68279,163.94,10,0.2,33.33,2025-12-29T09:52:25.646668799Z,-96.39
96,10.9,836.7,-3.81,-1.07,-10.16,16,-0.01,0,0.01,1.6,74,124217,129341303,775364320,-5.66,68300,159.44,11,0.2,33.33,2025-12-29T09:52:29.102695646Z,166.5
96,10.82,837.9,-3.88,-1.1,-10.04,16,-0.02,0,0.01,1.6,77,124103,129341216,775364235,-5.85,68332,158.89,11,0.2,33.38,2025-12-29T09:52:32.595657533Z,-176.45
97,10.84,837.9,-3.93,-1.13,-10.04,16,-0.01,0,0,1.6,70,123699,129341216,775364235,-6.01,67296,158.61,11,0.2,33.38,2025-12-29T09:52:36.295970553Z,-164.05
98,11.1,837.9,2.96,-1.4,-10.61,16,-0.01,-1.1,0.19,1.6,71,123552,129341216,775364235,-7.22,67794,-164.43,11,0.2,33.28,2025-12-29T09:52:39.59064623Z,-90.67
98,11.32,837.9,-1.28,-1.39,-11.16,16,-0.04,-0.47,0.06,1.6,75,123501,129341216,775364235,-7.07,67821,173.48,11,0.2,33.33,2025-12-29T09:52:42.839762466Z,-94.75
97,11.13,840.6,-0.95,-1.35,-11,16,-0.02,0,0.01,1.6,74,123463,129341088,775364071,-6.98,67749,175.09,11,0.07,33.38,2025-12-29T09:52:46.938454258Z,-174.81
95,11.22,840.6,-0.6,-1.43,-11.11,16,-0.01,-0.05,0.02,1.6,72,123680,129341088,775364071,-7.31,66825,176.9,11,0.07,33.38,2025-12-29T09:52:50.272036457Z,-103.38
98,11.32,840.9,1.85,-1.32,-11.09,16,-0.05,0.03,-0.02,1.6,77,122365,129341056,775364023,-6.7,68237,-170.53,11,0.07,33.47,2025-12-29T09:52:53.896549779Z,145.46
97,10.73,840.9,-0.2,5.16,-9.4,16,-0.71,0.47,-0.17,1.6,71,121745,129341033,775364071,28.77,67960,178.8,11,0.07,33.28,2025-12-29T09:52:57.585049742Z,146.46
97,10.27,840.9,2.81,9.1,-3.87,16,0.02,-0.02,-0.07,1.6,75,121785,129341033,775364071,62.28,68038,-144.01,11,0.07,33.33,2025-12-29T09:53:01.064691624Z,-46.25
95,10.17,841.2,2.88,8.88,-4.04,16,-0.02,-0.01,0,1.61,77,123086,129341013,775364155,60.83,69511,-144.54,10,0.31,33.38,2025-12-29T09:53:04.777172796Z,-160.25
96,11.02,841.2,3.59,5.26,-9,16,-0.04,0.01,0.02,1.61,74,124632,129341013,775364155,28.53,67803,-158.25,10,0.31,33.38,2025-12-29T09:53:08.469097485Z,163.25
98,10.73,841.2,-1.35,-1.36,-10.56,16,0.07,0.75,-0.11,1.61,79,124074,129341013,775364155,-7.28,67554,172.7,10,0.31,33.28,2025-12-29T09:53:12.321726063Z,84.65
95,10.95,840.8,-2.5,-1.29,-10.58,16,-0.02,0,0,1.62,78,124040,129340938,775364355,-6.75,67529,166.7,10,0.07,33.33,2025-12-29T09:53:15.411844055Z,-165.75
97,10.98,840.8,-2.51,-1.28,-10.62,16,-0.02,0.01,0,1.62,78,123799,129340938,775364355,-6.7,67479,166.7,10,0.07,33.28,2025-12-29T09:53:18.671758891Z,153.43
96,10.97,840.8,-2.5,-1.23,-10.61,16,-0.02,0,0,1.62,73,123749,129340963,775364275,-6.45,67482,166.76,10,0.19,33.33,2025-12-29T09:53:22.376468205Z,-171.08
96,11.02,839.3,-2.49,-1.27,-10.66,16,-0.01,0,0.01,1.62,76,123724,129340958,775364276,-6.61,67402,166.84,10,0.19,33.38,2025-12-29T09:53:26.037725637Z,166.58
96,11.02,839.3,-2.48,-1.25,-10.66,16,-0.01,0.01,0,1.62,79,123528,129340958,775364276,-6.53,67361,166.89,10,0.19,33.38,2025-12-29T09:53:29.966509445Z,144.88
98,10.94,839.3,-2.53,-1.25,-10.57,16,-0.02,0,0.01,1.62,77,123549,129340958,775364276,-6.55,67322,166.54,10,0.19,33.33,2025-12-29T09:53:33.62723998Z,178.09
98,10.98,839.3,-2.55,-1.24,-10.61,16,-0.01,0,0,1.62,74,123664,129340958,775364276,-6.46,67412,166.47,10,0.19,33.38,2025-12-29T09:53:37.339943365Z,176.29
95,10.97,838.4,-2.55,-1.24,-10.6,19,-0.02,0,0.01,1.23,76,123603,129341095,775364165,-6.49,67422,166.45,10,0.43,33.24,2025-12-29T09:53:41.263441292Z,-176.94
97,10.96,838.4,-2.42,-1.25,-10.61,19,-0.02,0,0.01,1.23,76,123619,129341063,775364265,-6.55,67381,167.14,10,0.87,33.24,2025-12-29T09:53:44.900229246Z,-174.45
97,11.08,838.4,-2.55,-1.36,-10.7,19,-0.02,-0.01,0.01,1.23,78,122935,129341063,775364265,-7.04,66833,166.59,10,0.87,33.28,2025-12-29T09:53:48.795269813Z,-151.05
98,11.28,838.4,0.79,-1.49,-11.15,19,-0.01,-0.08,0.02,1.23,73,123381,129341063,775364265,-7.61,67190,-175.97,10,0.87,33.33,2025-12-29T09:53:52.882908758Z,-93.81
98,11.04,838.4,-1.76,-1.41,-10.8,19,-0.02,-0.14,0.03,1.23,74,123733,129341063,775364265,-7.32,67349,170.72,10,0.87,33.38,2025-12-29T09:53:56.360984794Z,-96.75
95,11.09,838.4,-2.11,-1.32,-10.8,19,-0.01,0,0.01,1.23,76,123696,129341063,775364265,-6.85,67330,168.96,10,0.87,33.38,2025-12-29T09:53:59.841173649Z,171.79
98,11.06,838.4,-2.11,-1.33,-10.78,19,-0.02,0,0,1.23,78,123714,129341063,775364265,-6.89,67366,168.91,10,0.87,33.38,2025-12-29T09:54:03.605558216Z,175.89
96,10.96,837.9,-2.09,-1.33,-10.68,19,-0.02,0,0,1.56,78,123571,129340879,775364728,-6.96,67323,168.92,12,0.28,33.28,2025-12-29T09:54:08.03754201Z,-169.97
95,11.03,837.4,-2.15,-1.32,-10.74,19,-0.01,0,0,1.19,79,123609,129340841,775364795,-6.89,67353,168.7,12,0.09,33.38,2025-12-29T09:54:11.730768855Z,163.44
97,11.04,837.4,-2.18,-1.33,-10.75,19,-0.01,0,0,1.19,77,124066,129340841,775364795,-6.94,67286,168.54,12,0.09,33.28,2025-12-29T09:54:15.614867499Z,179.4
95,8.48,837.4,1.6,-2.03,-8.07,19,-0.65,0,-0.56,1.19,71,123944,129340841,775364795,-13.86,66322,-168.78,12,0.09,33.24,2025-12-29T09:54:19.521479531Z,179.68
96,11.27,838,-0.08,-2.01,-11.09,19,0.01,-0.13,0.09,1.07,74,124140,129340693,775365086,-10.28,66271,179.59,12,0.28,33.33,2025-12-29T09:54:23.391216606Z,-86.57
98,10.7,838.3,-2.06,-2.25,-10.26,19,-0.04,-0.02,-0.02,1.56,75,124077,129340683,775365085,-12.11,66209,168.64,12,0.15,33.33,2025-12-29T09:54:27.069271485Z,-155.03
95,11.22,839.4,-1.75,-2.35,-10.83,19,-0.01,-0.11,-0.03,1.56,74,124078,129340676,775365066,-12.08,66248,170.82,12,0.28,33.33,2025-12-29T09:54:30.43180009Z,-96.44
95,11.23,839.4,-1.44,-2.27,-10.91,19,0.02,-0.29,0.08,1.56,79,123868,129340676,775365066,-11.66,66013,172.47,12,0.28,33.33,2025-12-29T09:54:33.834225644Z,-86.98
96,11.05,841.7,-1.89,-2.27,-10.65,19,-0.01,-0.01,0,1.57,79,123799,129340701,775364975,-11.88,65925,169.93,12,0.17,33.24,2025-12-29T09:54:37.108713219Z,-132.6
98,11.07,842.7,-1.95,-2.36,-10.64,19,-0.01,-0.01,0,1.07,72,124264,129340706,775364946,-12.28,66380,169.64,12,0.28,33.28,2025-12-29T09:54:40.434666576Z,-153.43
97,11,842.7,-2.01,-2.28,-10.57,19,-0.02,0.02,0.01,1.07,72,123492,129340706,775364946,-11.98,65524,169.26,12,0.28,33.28,2025-12-29T09:54:43.888898874Z,141.96
95,10.97,845.7,-1.19,-2.24,-10.67,19,-0.05,0.16,0,1.57,72,123228,129340758,775364806,-11.79,65295,173.65,12,0.98,33.28,2025-12-29T09:54:47.366572768Z,107.68
97,10.76,845.7,-1.1,-1.99,-10.52,19,-0.05,0.18,-0.04,1.57,76,124277,129340758,775364806,-10.67,66674,174.04,12,0.98,33.28,2025-12-29T09:54:51.251352173Z,104.54
96,11.17,847.7,-2.1,-2.35,-10.71,19,-0.01,-0.17,0.04,1.57,75,124242,129340793,775364759,-12.14,66382,168.88,12,0.11,33.33,2025-12-29T09:54:55.346290674Z,-94.54
97,11.18,847.7,-2.58,-2.46,-10.59,19,0,-0.07,0,1.57,72,124179,129340808,775364778,-12.7,66249,166.32,12,0.17,33.33,2025-12-29T09:54:59.244413254Z,-88.15
97,11.49,849.1,-2.53,-2.34,-10.96,19,0.03,-0.39,0.07,1.57,74,124071,129340823,775364761,-11.75,65938,166.99,12,0,33.33,2025-12-29T09:55:02.904791533Z,-86.1
97,11.01,849.1,-2.18,-2.31,-10.54,19,-0.01,0,0,1.57,77,124015,129340831,775364756,-12.13,65874,168.33,12,0.24,33.38,2025-12-29T09:55:06.192644813Z,169.55
96,11.07,850.2,-2.16,-2.29,-10.62,19,-0.01,0,0.01,1.58,72,123818,129340808,775364811,-11.95,65827,168.48,12,0.24,33.28,2025-12-29T09:55:09.674227844Z,-176.76
95,11.02,850.2,-2.16,-2.37,-10.55,19,-0.02,0.01,0,1.58,73,123878,129340808,775364811,-12.41,65911,168.44,12,0.24,33.28,2025-12-29T09:55:13.166429729Z,138.01
96,11.08,850.4,-2.59,-2.32,-10.52,82,-0.01,-0.37,0.02,1.58,77,124317,129340818,775364836,-12.09,66191,166.17,12,0.24,33.38,2025-12-29T09:55:17.038307533Z,-91.18
98,10.21,850.7,-1.89,-2.24,-9.78,82,0.12,-0.67,0.01,1.58,71,124261,129340821,775364759,-12.67,65442,169.05,12,0.52,33.33,2025-12-29T09:55:20.768551966Z,-80.04
97,12.12,850.7,-3.32,-2.56,-11.37,82,-0.02,-1.01,0.03,1.58,75,124050,129340821,775364759,-12.19,66123,163.7,12,0.52,33.38,2025-12-29T09:55:24.406578803Z,-91.28
98,11.03,851.6,-0.48,-1.95,-10.85,82,0,-0.14,0.09,1.58,79,124109,129340836,775364656,-10.16,66159,177.46,12,0.52,33.33,2025-12-29T09:55:27.709109705Z,-88.65
96,10.64,851.6,-2.34,-2.39,-10.1,82,-0.03,0.09,-0.03,1.58,76,124237,129340830,775364695,-13,66168,166.94,12,0.19,33.33,2025-12-29T09:55:31.392666444Z,107.06
97,10.73,853.4,-2.79,-2.33,-10.09,82,-0.02,0.22,-0.04,1.07,70,124126,129340843,775364666,-12.56,65898,164.53,12,0.19,33.28,2025-12-29T09:55:35.093537634Z,95.38
96,11.04,853.4,-2.38,-2.29,-10.53,82,-0.01,-0.02,0.01,1.07,73,124048,129340843,775364666,-11.98,65812,167.24,12,0.19,33.42,2025-12-29T09:55:38.763828257Z,-123.04
98,10.98,853.4,-2.31,-2.3,-10.48,82,-0.02,0,0,1.07,71,124075,129340843,775364666,-12.08,65850,167.59,12,0.19,33.38,2025-12-29T09:55:42.230504119Z,174.38
96,11.08,853.4,-2.38,-2.33,-10.57,82,-0.02,0.01,0,1.07,78,124005,129340843,775364666,-12.13,65816,167.31,12,0.19,33.33,2025-12-29T09:55:45.508283617Z,158.87
95,11.1,853.4,-2.32,-2.37,-10.59,82,-0.02,0.01,0,1.07,77,123928,129340843,775364666,-12.3,65802,167.65,12,0.19,33.38,2025-12-29T09:55:49.210102556Z,161.98
98,11.16,853.4,-2.36,-2.37,-10.65,82,-0.02,0,0,1.07,77,124179,129340905,775364581,-12.25,65877,167.5,12,0.19,33.28,2025-12-29T09:55:52.690831104Z,164.7
95,11.02,853.4,-2.31,-2.32,-10.52,82,-0.02,0,0.01,1.07,75,124140,129340881,775364601,-12.17,65883,167.63,12,0.06,33.38,2025-12-29T09:55:56.363670534Z,178.2
96,11.06,854.4,-2.38,-2.35,-10.55,82,-0.02,0,0,1.59,78,124195,129340881,775364601,-12.28,65844,167.31,12,0.06,33.28,2025-12-29T09:56:00.150845523Z,171.16
96,10.95,853.7,-2.29,-2.35,-10.44,82,-0.02,0,0,1.59,79,124110,129340848,775364683,-12.4,65840,167.61,12,0.85,33.33,2025-12-29T09:56:03.136869164Z,180
95,11.07,853.7,-2.37,-2.31,-10.56,82,-0.01,0,0,1.59,77,124054,129340848,775364683,-12.02,66040,167.38,12,0.85,33.28,2025-12-29T09:56:06.600226081Z,-170.97
95,11.05,853.7,-2.37,-2.32,-10.54,82,-0.01,0,0,1.59,71,123973,129340848,775364683,-12.13,66014,167.34,12,0.85,33.42,2025-12-29T09:56:10.35917188Z,173.42
97,11.11,850.4,-2.23,-2.38,-10.63,82,-0.02,0.02,0,1.1,71,123978,129340808,775364691,-12.35,65870,168.13,12,0.2,33.33,2025-12-29T09:56:13.989072476Z,137.09
97,10.97,850.4,-2.55,-2.33,-10.41,82,-0.02,0,0.01,1.1,72,123971,129340790,775364628,-12.27,65774,166.24,12,0.48,33.28,2025-12-29T09:56:17.261836024Z,-172.53
96,11.03,850.4,-2.36,-2.29,-10.52,82,-0.02,0.02,0,1.1,79,124603,129340790,775364628,-11.97,66466,167.38,12,0.48,33.38,2025-12-29T09:56:20.402917119Z,132.26
96,10.96,850.4,-4.37,-2.23,-9.81,82,-0.39,0.21,-0.14,1.1,72,124140,129340790,775364628,-11.73,65838,155.98,12,0.48,33.38,2025-12-29T09:56:23.836852627Z,151.1
97,10.89,846.9,-2.82,-2.23,-10.28,82,-0.06,0.07,-0.01,1.1,72,124267,129340698,775364821,-11.81,65832,164.67,12,1.5,33.38,2025-12-29T09:56:27.706968786Z,128
98,11.04,846.9,-2.68,-2.21,-10.48,82,-0.01,0,0,1.1,74,124269,129340698,775364821,-11.57,65864,165.67,12,1.5,33.38,2025-12-29T09:56:31.319753421Z,164.74
96,11.02,845.5,-2.65,-2.21,-10.47,82,-0.02,0,0,1.1,78,124133,129340646,775364950,-11.57,65845,165.79,12,0.3,33.28,2025-12-29T09:56:34.904045633Z,-179.51
98,11.03,845.5,-2.66,-2.17,-10.48,82,-0.02,0.01,0,1.1,71,124190,129340646,775364950,-11.36,66004,165.74,12,0.3,33.33,2025-12-29T09:56:39.45307046Z,148.23
97,11.13,845.5,-0.11,-1.96,-10.96,82,0,0.09,0.03,1.1,74,124111,129340646,775364950,-10.12,66092,179.41,12,0.3,33.33,2025-12-29T09:56:43.276178506Z,90.08
98,11.44,844.7,-3.74,-2.37,-10.54,15,0.01,-0.1,-0.01,1.03,77,124095,129340575,775365028,-11.94,65854,160.46,12,0.37,33.38,2025-12-29T09:56:46.56668829Z,-81.31
95,10.97,844.7,-2.56,-2.26,-10.43,15,-0.02,0,0.01,1.03,79,124032,129340575,775365028,-11.9,65841,166.2,12,0.37,33.33,2025-12-29T09:56:50.183126307Z,-171.94
97,11.01,845.4,-2.66,-2.27,-10.44,15,-0.02,0,0,1.17,78,124114,129340556,775365046,-11.91,65868,165.73,12,0.28,33.28,2025-12-29T09:56:53.940096882Z,175.24
95,10.99,845.4,-2.56,-2.16,-10.46,15,-0.02,0.01,0,1.17,71,124059,129340528,775365011,-11.35,65840,166.23,12,0.57,33.28,2025-12-29T09:56:57.409029121Z,155.56
97,11.01,845.5,-2.48,-2.22,-10.49,15,-0.02,0.01,0,1.17,75,124068,129340528,775365011,-11.65,65761,166.71,12,0.57,33.33,2025-12-29T09:57:01.099858155Z,158.46
95,11.04,844.9,-2.55,-2.22,-10.51,15,-0.01,0,0,1.17,72,124274,129340523,775364906,-11.61,65845,166.37,12,0.19,33.24,2025-12-29T09:57:04.791282335Z,178.36
97,11.07,844.9,-2.6,-2.21,-10.53,15,-0.01,0,0,1.17,77,124049,129340523,775364906,-11.51,65817,166.14,12,0.19,33.24,2025-12-29T09:57:08.483770393Z,-171.95
95,10.89,844.9,-2.59,-2.25,-10.34,15,-0.01,0.01,0,1.17,73,124121,129340523,775364906,-11.94,65806,165.95,12,0.19,33.28,2025-12-29T09:57:11.96487158Z,156.64
95,10.95,845,-2.57,-2.28,-10.4,15,-0.01,0,0.01,1.14,71,124125,129340516,775364556,-12.01,66042,166.13,12,0.19,33.28,2025-12-29T09:57:15.224336431Z,-177.88
95,11.01,844.3,-2.54,-2.11,-10.5,15,0,1.07,-0.06,1.1,76,124588,129340541,775364438,-11.03,66394,166.39,12,0.19,33.28,2025-12-29T09:57:18.527690377Z,89.77
96,10.9,844.3,-2.79,-1.82,-10.38,15,0.04,0.59,0.04,1.1,75,124129,129340541,775364438,-9.6,65760,164.96,12,0.19,33.33,2025-12-29T09:57:22.400173229Z,85.85
96,11.03,845,-2.64,-2.22,-10.47,15,-0.06,0.11,-0.01,1.14,74,123902,129340558,775364256,-11.61,66144,165.85,12,0.8,33.33,2025-12-29T09:57:26.072004437Z,119.13
96,10.88,844.7,-1.8,-2.11,-10.52,15,0.01,-0.23,0.08,1.14,70,124029,129340555,775364291,-11.18,66076,170.32,12,0.17,33.38,2025-12-29T09:57:29.761543037Z,-87.26
96,11.08,844.7,-2.66,-2.3,-10.5,15,0,-0.16,0.03,1.14,77,124057,129340555,775364291,-12,66094,165.79,12,0.17,33.28,2025-12-29T09:57:33.442533788Z,-89.71
96,10.98,844.7,-2.15,-2.17,-10.54,15,-0.06,0.13,-0.02,1.14,76,124081,129340555,775364291,-11.42,65977,168.46,12,0.17,33.33,2025-12-29T09:57:36.738048877Z,113.77
96,10.99,844.7,-2.92,-2.25,-10.36,15,0,-0.04,0,1.14,74,123935,129340569,775364276,-11.81,65774,164.24,12,0.07,33.33,2025-12-29T09:57:40.62072919Z,-91.11
96,11.04,844.4,-2.55,-2.21,-10.51,15,-0.02,0,0,1.2,71,123939,129340545,775364336,-11.52,65797,166.38,12,0.07,33.33,2025-12-29T09:57:44.298409824Z,177.78
98,11,844.5,-2.51,-2.22,-10.48,15,-0.02,0,0,1.2,70,123957,129340538,775364351,-11.65,65962,166.51,12,0.37,33.38,2025-12-29T09:57:47.978939474Z,169.94
98,11.02,843.9,-2.49,-2.18,-10.51,15,-0.01,0.01,0,1.2,77,123857,129340508,775364431,-11.39,65753,166.68,12,0.37,33.33,2025-12-29T09:57:51.695067425Z,142.16
97,11.02,843.9,-2.68,-2.27,-10.44,15,-0.02,0.01,0,1.2,76,124029,129340508,775364431,-11.89,65758,165.62,12,0.37,33.38,2025-12-29T09:57:55.350832707Z,163.59
98,11.02,843.9,-2.57,-2.15,-10.5,15,-0.02,-0.01,0.01,1.2,72,123942,129340508,775364431,-11.26,65733,166.26,12,0.37,33.33,2025-12-29T09:57:59.456237139Z,-153.43
96,11.02,843.3,-2.51,-2.2,-10.51,15,-0.02,0.01,0,1.24,76,123946,129340483,775364476,-11.52,65772,166.54,10,0.81,33.38,2025-12-29T09:58:02.93051647Z,139.93
98,10.99,843.7,-2.52,-2.21,-10.46,15,-0.02,0.01,0,1.24,72,124024,129340429,775364540,-11.63,65735,166.45,10,0.69,33.38,2025-12-29T09:58:06.837658022Z,139.78
97,11.03,843.7,-2.51,-2.2,-10.52,15,-0.01,0,0.01,1.24,70,123867,129340429,775364540,-11.51,65921,166.58,10,0.69,33.33,2025-12-29T09:58:10.750684082Z,-160.63
97,10.97,843.7,-2.54,-2.23,-10.43,15,-0.02,0.01,0,1.24,72,124121,129340429,775364540,-11.75,65800,166.33,10,0.69,33.28,2025-12-29T09:58:14.190342559Z,147.5
98,11.07,845.6,-2.63,-2.17,-10.53,15,-0.01,0,0,1.24,74,124086,129340425,775364540,-11.3,65772,165.98,11,0.69,33.38,2025-12-29T09:58:18.111788006Z,171.14
97,11.02,845.6,-2.57,-2.24,-10.48,15,-0.02,0,0,1.24,77,124367,129340458,775364493,-11.75,65969,166.23,11,0.37,33.33,2025-12-29T09:58:21.583877165Z,164.5
97,10.99,845.6,-3.05,-2.17,-10.33,15,-0.03,-0.17,-0.01,1.24,74,123421,129340458,775364493,-11.38,65154,163.55,11,0.37,33.24,2025-12-29T09:58:24.665592868Z,-101.54
97,12.04,848.2,-1.01,-1.69,-11.88,15,-0.1,0.46,0,1.08,77,123665,129340488,775364540,-8.08,65112,175.13,11,0.74,33.28,2025-12-29T09:58:27.928377139Z,102.22
97,12.05,847.4,-0.97,-1.7,-11.89,15,-0.09,0.38,0.01,1.21,72,123814,129340566,775364621,-8.12,65219,175.35,11,0.35,33.28,2025-12-29T09:58:31.392080949Z,102.8
95,10.98,847.4,-2.93,-2.22,-10.34,15,-0.02,-0.07,0.01,1.21,73,123927,129340566,775364621,-11.65,65567,164.17,11,0.35,33.33,2025-12-29T09:58:34.878506494Z,-106.27
96,11,846.4,-2.98,-2.22,-10.35,15,-0.02,0,0.01,1.2,72,124064,129340648,775364608,-11.63,65519,163.94,11,1,33.28,2025-12-29T09:58:38.171930141Z,-179.12
96,10.96,845,-3.01,-2.21,-10.31,15,-0.01,0,0.01,1.2,74,123978,129340731,775364620,-11.6,65510,163.73,12,1,33.33,2025-12-29T09:58:42.170644241Z,-175.72
95,10.96,845,-3.06,-2.22,-10.29,15,-0.02,0.01,0,1.2,76,124102,129340731,775364620,-11.7,65507,163.44,12,1,33.38,2025-12-29T09:58:45.322952757Z,150.36
98,11.02,845,-3,-2.21,-10.38,15,-0.02,0.01,0,1.2,71,123457,129340731,775364620,-11.54,65033,163.87,12,1,33.42,2025-12-29T09:58:48.840989728Z,157.35
95,11.4,845,-1.47,-1.96,-11.13,15,0,0.17,0.05,1.2,73,123887,129340731,775364620,-9.88,65422,172.45,12,1,33.24,2025-12-29T09:58:52.505541052Z,90.09
97,10.89,845,-2.98,-2.15,-10.25,15,-0.02,-0.07,0.01,1.2,79,124024,129340731,775364620,-11.4,65424,163.77,12,1,33.33,2025-12-29T09:58:55.991102177Z,-106.05
95,10.9,845,-2.97,-2.19,-10.26,349,-0.01,0,0.01,1.2,79,124136,129340925,775364543,-11.58,66071,163.87,12,0.13,33.28,2025-12-29T09:58:59.050597889Z,-167.78
95,11.18,845,-3.21,-2.24,-10.47,349,-0.01,0.04,-0.01,1.2,71,124100,129340925,775364543,-11.54,65742,162.96,12,0.13,33.33,2025-12-29T09:59:02.530047431Z,99.02
98,11.01,845,-2.98,-2.19,-10.37,349,-0.02,0,0,1.2,79,124313,129340925,775364543,-11.48,65758,163.98,12,0.13,33.38,2025-12-29T09:59:06.23680989Z,-176.4
96,10.99,843.3,-3.08,-2.21,-10.32,349,-0.02,0,0,1.11,76,124133,129340775,775364458,-11.61,65691,163.4,12,0.46,33.38,2025-12-29T09:59:09.940776362Z,172.32
95,10.98,843.3,-3.08,-2.22,-10.3,349,-0.02,0,0.01,1.11,78,124223,129340775,775364458,-11.68,65739,163.35,12,0.46,33.38,2025-12-29T09:59:13.581623479Z,161.87
95,10.88,843.3,-3.02,-2.25,-10.2,349,-0.02,0,0,1.11,76,124142,129340775,775364458,-11.96,65966,163.5,12,0.46,33.38,2025-12-29T09:59:17.281516035Z,165.67
97,10.99,840.3,-2.99,-2.03,-10.38,349,-0.01,0,0,1.2,79,124070,129340811,775364501,-10.62,66035,163.96,12,0.24,33.28,2025-12-29T09:59:20.552115678Z,-168
98,11.41,840.3,-3.41,-2.32,-10.64,349,0.03,-0.45,0.08,1.2,77,124156,129340806,775364465,-11.76,66013,162.2,12,0.28,33.33,2025-12-29T09:59:23.617283282Z,-86.07
95,11.03,839.4,-2.26,-2.13,-10.58,349,0.03,-0.41,0.09,1.2,74,124164,129340811,775364461,-11.16,65906,167.97,12,0.52,33.38,2025-12-29T09:59:26.684585412Z,-85.82
95,10.8,839.6,-2.46,-2.13,-10.3,349,-0.01,0.03,0.01,1.2,76,124035,129340838,775364503,-11.36,65902,166.55,12,0.69,33.24,2025-12-29T09:59:29.759741984Z,116.11
98,10.79,839.5,-2.15,-2.06,-10.37,349,0,-0.07,0.03,1.2,77,124060,129340861,775364508,-11.03,65671,168.3,12,0.63,33.38,2025-12-29T09:59:32.838955627Z,-87.86
97,10.88,840.1,-2.96,-2.19,-10.23,349,-0.01,-0.01,0,1.13,70,123929,129340866,775364460,-11.6,65650,163.85,12,0.09,33.33,2025-12-29T09:59:36.365189771Z,-159.57
95,10.9,842.4,-3.12,-2.3,-10.18,349,-0.01,-0.01,0.01,1.13,79,123987,129340823,775364401,-12.2,65676,162.95,12,0.09,33.28,2025-12-29T09:59:39.803066864Z,-146.75
95,10.99,842,-3.01,-2.23,-10.34,349,-0.02,0,0.01,1.17,74,124088,129340795,775364433,-11.69,65655,163.78,12,0.06,33.28,2025-12-29T09:59:42.861343427Z,-178.11
98,10.98,841.9,-3.05,-2.22,-10.31,349,-0.02,0,0,1.2,76,124144,129340790,775364466,-11.65,65738,163.55,12,0.06,33.38,2025-12-29T09:59:46.150728498Z,169.25
97,10.91,841.6,-3.02,-2.19,-10.25,349,-0.01,0.01,0,1.2,79,124022,129340780,775364471,-11.56,65688,163.57,12,0.06,33.38,2025-12-29T09:59:49.214224746Z,159.75
98,10.94,841.6,-0.74,-2.39,-10.65,349,0.03,-0.33,0.05,1.2,70,124524,129340780,775364471,-12.62,65349,176.01,12,0.06,33.38,2025-12-29T09:59:52.284736477Z,-85.14
96,11.03,841.6,-0.64,-2.39,-10.75,349,0.03,-0.36,0.05,1.2,79,124214,129340780,775364471,-12.5,65956,176.58,12,0.06,33.28,2025-12-29T09:59:55.361266365Z,-84.66
97,11.25,841.6,-0.74,-2.32,-10.98,349,0.01,-0.19,0.08,1.2,75,124244,129340780,775364471,-11.93,65877,176.16,12,0.06,33.33,2025-12-29T09:59:58.637156458Z,-88.04
95,11.22,841.6,-2.63,-2.61,-10.59,349,0,0.12,-0.01,1.2,75,124252,129340780,775364471,-13.45,65764,166.06,12,0.06,33.33,2025-12-29T10:00:02.134534698Z,88.19
97,11.31,841.6,-1.88,-2.42,-10.89,95959,-0.05,0.14,-0.02,1.2,78,124189,129340710,775364686,-12.36,65718,170.19,10,0.09,33.38,2025-12-29T10:00:05.202375387Z,108.78
96,11.12,841.6,-2.71,-2.54,-10.48,95959,0,-0.01,0,1.2,75,124137,129340710,775364686,-13.22,65539,165.5,10,0.09,33.24,2025-12-29T10:00:08.256440085Z,-94.6
98,11.01,841.6,-2.16,-2.48,-10.51,95959,-0.01,-0.02,0.01,1.2,77,124139,129340710,775364686,-13.03,65502,168.36,10,0.09,33.38,2025-12-29T10:00:11.360425165Z,-125.79
96,11.01,841.6,-2.17,-2.5,-10.5,95959,-0.02,0.01,0,1.2,78,124041,129340710,775364686,-13.15,65552,168.34,10,0.09,33.33,2025-12-29T10:00:14.613702979Z,144.18
98,11.2,841.6,-2.15,-2.47,-10.71,95959,-0.01,-0.03,0.01,1.2,75,124140,129340710,775364686,-12.72,65460,168.65,10,0.09,33.38,2025-12-29T10:00:17.680773437Z,-114.04
97,11.06,843.8,-2.11,-2.42,-10.58,95959,-0.02,0.01,0,1.2,78,123758,129340688,775364756,-12.64,65047,168.74,10,0.24,33.28,2025-12-29T10:00:20.766272936Z,154.34
98,11.3,845,-0.46,-2.33,-11.04,95959,-0.02,0,0,1.2,79,123244,129340668,775364795,-11.93,65318,177.59,10,0.33,33.33,2025-12-29T10:00:23.833245344Z,173.44
95,11.24,845.7,-0.15,-2.35,-10.99,95959,-0.01,-0.04,0.02,1.2,74,123635,129340656,775364808,-12.05,65479,179.24,10,0.13,33.38,2025-12-29T10:00:26.898862179Z,-108.06
96,11.15,846.2,-0.5,-2.41,-10.87,95959,-0.05,0.05,-0.01,1.38,73,123938,129340658,775364765,-12.48,65382,177.39,10,0.19,33.38,2025-12-29T10:00:29.964907909Z,136.21
98,11.19,846.7,-1.04,-2.39,-10.88,95959,-0.02,0,0,1.38,78,123975,129340658,775364765,-12.36,65399,174.53,10,0.19,33.33,2025-12-29T10:00:33.46379733Z,166.76
96,11.18,846.7,-1.04,-2.49,-10.85,95959,-0.02,0.01,0,1.38,73,123890,129340653,775364716,-12.89,65359,174.54,10,0.19,33.52,2025-12-29T10:00:36.522559708Z,154.63
98,11.09,846.7,-1.08,-2.48,-10.75,95959,-0.01,0.01,0,1.38,79,124064,129340626,775364635,-12.92,65415,174.27,10,0.2,33.47,2025-12-29T10:00:39.590597123Z,154.08
98,11.1,846.7,-1.08,-2.46,-10.77,95959,-0.02,0.01,0,1.38,75,123957,129340633,775364576,-12.81,65353,174.25,10,0.37,33.28,2025-12-29T10:00:42.674964769Z,159.29
98,11.13,847.3,-1.15,-2.46,-10.8,95959,-0.02,0.01,0.01,1.2,78,124040,129340645,775364538,-12.77,65679,173.94,11,0.7,33.33,2025-12-29T10:00:45.738668543Z,159.35
95,11.07,847.1,-0.85,-2.55,-10.74,95959,-0.01,0.16,0,1.17,75,123762,129340693,775364523,-13.34,65634,175.48,11,0.52,33.42,2025-12-29T10:00:48.817899338Z,94.98
95,11.32,847.1,0.66,-2.13,-11.1,95959,0.02,-0.07,0.06,1.17,70,123870,129340718,775364513,-10.83,65493,-176.59,11,0.11,33.38,2025-12-29T10:00:51.89631254Z,-75.1
98,11.27,847.1,-1,-2.51,-10.94,95959,0,-0.04,0.01,1.17,79,123957,129340738,775364511,-12.85,65400,174.77,11,0.33,33.33,2025-12-29T10:00:55.589851516Z,-92.39
95,11.11,847.4,-1.07,-2.49,-10.77,95959,-0.02,0,0,1.2,70,124042,129340751,775364496,-12.97,65429,174.34,11,0.33,33.28,2025-12-29T10:00:59.059783602Z,178.53
98,11.22,848.3,-1.01,-2.55,-10.87,95959,-0.02,0,0.01,1.17,76,123958,129340770,775364545,-13.14,65372,174.68,11,0.04,33.33,2025-12-29T10:01:02.949252818Z,176.63
98,11.12,848.3,-1.04,-2.48,-10.79,95959,-0.02,0,0,1.17,73,123250,129340770,775364545,-12.9,64912,174.47,11,0.04,33.42,2025-12-29T10:01:06.245666938Z,173.66
95,10.43,849.9,-0.36,-2.41,-10.15,95959,0.01,0.1,0.01,1.17,75,123116,129340788,775364616,-13.33,64603,177.99,11,0.04,33.42,2025-12-29T10:01:09.917048387Z,83.98
96,11.21,849.9,-0.12,-2.39,-10.95,95959,-0.02,-0.01,0.01,1.17,79,123077,129340788,775364616,-12.33,64613,179.37,11,0.04,33.28,2025-12-29T10:01:13.621435536Z,-160.51
97,11.15,849.9,-0.09,-2.41,-10.89,95959,-0.02,0,0,1.17,75,123045,129340788,775364616,-12.48,64628,179.52,11,0.04,33.38,2025-12-29T10:01:17.294407232Z,-164.05
96,11.23,851.7,-0.12,-2.43,-10.96,95959,-0.01,0.01,0,1.17,74,123129,129340765,775364758,-12.48,64645,179.39,11,0.19,33.42,2025-12-29T10:01:20.984833061Z,153.43
95,11.22,851.7,-0.17,-2.4,-10.96,95959,-0.02,0,0,1.17,78,122911,129340793,775364793,-12.36,64608,179.14,11,0.19,33.38,2025-12-29T10:01:24.474523059Z,-176.96
98,11.21,851.7,-0.09,-2.42,-10.95,95959,-0.02,0.01,0,1.17,79,123739,129340793,775364793,-12.48,68029,179.54,11,0.19,33.28,2025-12-29T10:01:27.521848673Z,156.35
95,10.35,851.7,0.51,8.55,-5.8,95959,-0.17,0.06,-0.13,1.17,74,123205,129340871,775364743,55.77,68132,-174.97,11,2.65,33.33,2025-12-29T10:01:31.229846551Z,162.21
96,10.17,851.7,1.37,8.76,-4.98,95959,-0.04,0,0.02,1.17,77,122949,129340848,775364666,59.48,68061,-164.6,11,0.15,33.38,2025-12-29T10:01:34.540293339Z,174.16
96,10.17,851.7,1.29,8.83,-4.88,95959,-0.03,0,0.01,1.17,77,122696,129340848,775364666,60.25,68034,-165.18,11,0.15,33.38,2025-12-29T10:01:37.77526765Z,178.66
96,10.16,851.7,1.22,8.77,-4.97,95959,0.02,0.01,-0.01,1.17,72,122641,129340746,775364506,59.74,68120,-166.17,11,0.56,33.38,2025-12-29T10:01:41.655522741Z,37.55
96,10.53,851.7,1.33,9,-5.29,95959,-0.02,-0.03,0.01,1.17,76,122411,129340746,775364506,58.77,67927,-165.91,11,0.56,33.33,2025-12-29T10:01:44.965620426Z,-124.78
97,10.27,846.9,1.35,8.89,-4.96,95959,-0.02,0,0.01,1.17,72,122403,129340796,775364571,59.95,67942,-164.78,11,0.2,33.42,2025-12-29T10:01:48.621955532Z,172.98
98,10.23,846.9,1.35,8.88,-4.9,95959,-0.01,0.01,0.01,1.17,75,122321,129340796,775364571,60.24,67943,-164.61,11,0.2,33.33,2025-12-29T10:01:51.8946299Z,145.01
97,10.17,847.4,1.32,8.76,-5,95959,-0.02,0,0.01,1.17,79,122361,129340901,775364583,59.41,68030,-165.21,11,0.43,33.24,2025-12-29T10:01:55.379180075Z,167.38
95,10.22,847.4,1.2,8.67,-5.27,95959,0,0,-0.01,1.17,74,122319,129340901,775364583,58.07,67948,-167.12,11,0.43,33.28,2025-12-29T10:01:59.086969695Z,18.43
98,10.15,844.4,1.29,8.7,-5.07,95959,-0.04,0.01,0,1.17,72,122291,129340845,775364443,58.99,68030,-165.77,11,1.98,33.38,2025-12-29T10:02:02.552285025Z,167.62
98,10.17,844.4,1.29,8.73,-5.07,95959,-0.02,0.12,-0.03,1.17,71,122291,129340845,775364443,59.07,68003,-165.68,11,1.98,33.28,2025-12-29T10:02:06.247662996Z,99.92
97,10.52,844.9,1.29,9.1,-5.11,95959,-0.06,-0.01,0.03,1.17,71,122248,129340925,775364586,59.94,68005,-165.88,11,0.56,33.24,2025-12-29T10:02:10.181654358Z,-169.82
96,10.27,843.3,1.3,8.9,-4.96,95959,-0.01,-0.01,0.03,1.2,78,122181,129340851,775364533,60.06,67922,-165.25,10,0.28,33.38,2025-12-29T10:02:13.61060347Z,-126.12
97,10.16,843.3,1.37,8.76,-4.97,95959,0,-0.01,-0.01,1.2,70,122148,129340851,775364533,59.5,67963,-164.54,10,0.28,33.38,2025-12-29T10:02:17.320747652Z,-71.25
96,10.2,841.2,1.31,8.83,-4.93,95959,0,0.01,-0.01,1.17,73,122086,129340916,775364408,59.99,67919,-165.12,11,0.24,33.33,2025-12-29T10:02:20.591378945Z,82.33
95,10.16,841.2,1.29,8.73,-5.03,95959,-0.01,-0.06,0.03,1.17,74,122158,129341031,775364601,59.27,67996,-165.63,11,1.04,33.33,2025-12-29T10:02:23.662570952Z,-98.65
96,10.45,843.8,1.16,8.9,-5.36,95959,-0.02,0,0,1.72,73,122097,129341046,775364478,58.35,68001,-167.8,10,0.7,33.38,2025-12-29T10:02:26.720387144Z,179.31
96,9.91,843.7,1.26,8.38,-5.15,95959,-0.03,-0.06,-0.01,1.73,79,122100,129341011,775364358,57.69,67986,-166.28,10,0.74,33.42,2025-12-29T10:02:29.994331813Z,-114.87
95,10.22,844.3,1.34,8.77,-5.07,95959,-0.01,0.01,0,1.17,74,122085,129341000,775364311,59.15,67970,-165.2,11,0.74,33.28,2025-12-29T10:02:33.063175217Z,153.43
97,10.23,844.3,1.37,8.77,-5.07,95959,-0.02,0.01,0.01,1.17,77,122052,129341000,775364311,59.1,67985,-164.91,11,0.74,33.28,2025-12-29T10:02:36.552782617Z,160.02
95,10.24,844.3,1.36,8.79,-5.08,95959,-0.01,0,0,1.17,71,122029,129341000,775364311,59.12,67945,-164.96,11,0.74,33.38,2025-12-29T10:02:39.841827931Z,161.75
97,10.23,849.1,1.32,8.8,-5.03,95959,-0.02,0,0,1.73,77,122020,129341060,775364595,59.43,67981,-165.28,10,0.98,33.24,2025-12-29T10:02:43.719182082Z,166.37
97,10.22,849.1,1.3,8.81,-5.02,95959,-0.02,0,0,1.73,74,122051,129341060,775364595,59.55,67970,-165.52,10,0.98,33.38,2025-12-29T10:02:46.997633736Z,172.57
98,10.18,850.1,1.3,8.81,-4.93,95959,-0.02,0.01,0.01,1.73,77,122068,129340930,775364773,59.92,67985,-165.26,11,0.98,33.33,2025-12-29T10:02:50.524629767Z,148.31
96,10.31,850.1,1.33,8.79,-5.22,95959,-0.02,0.02,0,1.73,74,122001,129340930,775364773,58.5,68030,-165.72,11,0.98,33.28,2025-12-29T10:02:53.767474277Z,139.74
97,9.67,851.2,1.43,8.32,-4.73,95959,0.02,-0.11,0.08,1.73,70,122033,129340866,775364861,59.28,68042,-163.22,11,0.44,33.33,2025-12-29T10:02:57.242964591Z,-80.66
95,10.34,852.2,1.29,8.88,-5.13,95959,-0.03,0.02,0,1.73,75,122052,129340816,775364876,59.2,68065,-165.89,10,0.44,33.33,2025-12-29T10:03:00.731249852Z,142.75
98,10.13,852.2,1.19,8.66,-5.12,95959,-0.04,0,0.02,1.73,75,121980,129340816,775364876,58.76,68015,-166.96,10,0.44,33.38,2025-12-29T10:03:04.609671732Z,178.25
96,10.21,852.2,1.21,8.79,-5.06,95959,-0.04,-0.01,0.02,1.73,78,121959,129340816,775364876,59.4,68057,-166.58,10,0.44,33.28,2025-12-29T10:03:07.884669674Z,-164.37
97,10.29,856.7,1.22,8.78,-5.21,95959,-0.01,0.01,0,1.74,77,121965,129340871,775364693,58.62,68052,-166.8,10,1.35,33.28,2025-12-29T10:03:11.393651732Z,147.53
96,10.22,857.5,1.26,8.77,-5.08,95959,-0.02,0.01,0,1.74,77,121912,129340866,775364685,59.16,68045,-166.06,10,1.35,33.28,2025-12-29T10:03:14.860023558Z,159.13
95,10.24,858,1.3,8.8,-5.06,95959,-0.01,0,0,1.74,72,121906,129340706,775364836,59.29,68005,-165.55,10,1.83,33.33,2025-12-29T10:03:18.531235835Z,165.36
97,10.2,858,1.28,8.76,-5.08,95959,-0.01,0,0.01,1.74,77,121869,129340706,775364836,59.1,68006,-165.85,10,1.83,33.38,2025-12-29T10:03:21.808251227Z,168.14
96,10.26,858,1.28,8.78,-5.16,95959,-0.01,0,0.01,1.74,75,121887,129340571,775364931,58.78,68012,-166.04,10,0.56,33.33,2025-12-29T10:03:25.102315001Z,-166.76
98,10.21,858,1.29,8.78,-5.04,95959,-0.02,-0.01,0,1.74,71,121869,129340571,775364931,59.34,68021,-165.62,10,0.56,33.33,2025-12-29T10:03:28.772814482Z,-162.41
95,10.16,858,1.3,8.75,-4.99,95959,-0.02,0.01,0,1.74,76,121858,129340571,775364931,59.48,68015,-165.35,10,0.56,33.38,2025-12-29T10:03:32.534464303Z,156.42
98,10.25,854.8,1.29,8.74,-5.19,95959,-0.01,0.01,0.01,1.74,71,121851,129340393,775364878,58.54,67996,-166.09,10,0.89,33.38,2025-12-29T10:03:36.155782595Z,155.52
97,10.19,854.3,1.25,8.78,-5.01,95959,-0.01,0,0.01,1.74,77,121072,129340390,775364733,59.54,66655,-165.94,10,0.37,33.28,2025-12-29T10:03:39.421315833Z,179.09
98,9.88,854.3,3.21,9.07,-2.26,95959,-0.33,-0.06,0.24,1.74,76,120703,129340390,775364733,66.61,66057,-125.16,10,0.37,33.33,2025-12-29T10:03:43.124787893Z,-170.53
96,9.92,854.6,3.87,9.01,-1.49,95959,-0.02,0.01,0.01,1.78,71,120682,129340416,775365094,65.31,66080,-111.03,9,2.19,33.33,2025-12-29T10:03:46.389867857Z,160.67
96,9.83,854.6,3.84,8.92,-1.57,95959,-0.02,0.01,0.01,1.78,72,120606,129340416,775365094,65.05,66003,-112.24,9,2.19,33.33,2025-12-29T10:03:50.171100945Z,160.22
95,9.88,854.6,3.88,8.98,-1.41,95959,-0.02,0,0.01,1.78,78,120587,129340416,775365094,65.3,65942,-110,9,2.19,33.33,2025-12-29T10:03:53.766089298Z,166.08
97,9.89,854.6,3.91,8.98,-1.41,95959,-0.01,0,0.01,1.78,72,120582,129340416,775365094,65.15,65959,-109.83,9,2.19,33.38,2025-12-29T10:03:57.45760213Z,160.06
98,9.87,854.6,3.92,8.96,-1.33,95959,-0.01,0,0.01,1.78,73,120836,129340416,775365094,65.21,66714,-108.7,9,2.19,33.24,2025-12-29T10:04:00.938916925Z,-158.75
95,9.86,853.6,2.12,9.18,-2.9,17,0.54,-0.24,-0.37,1.17,78,121029,129340426,775364935,68.63,67536,-143.81,11,1.13,33.33,2025-12-29T10:04:04.620000535Z,-23.94
98,10.12,853.6,2.05,8.96,-4.24,17,0.03,0.02,0.05,1.17,70,122597,129340426,775364935,62.29,66958,-154.19,11,1.13,33.28,2025-12-29T10:04:08.314763931Z,24.33
96,10.98,851.5,3.65,-1.8,-10.2,17,0.03,-0.06,0.06,1.75,78,123605,129340481,775364843,-9.42,67170,-160.3,10,1.43,33.19,2025-12-29T10:04:12.41440874Z,-66.08
96,11.32,851.5,4.29,-1.39,-10.38,17,-0.03,0.03,0,1.75,77,123731,129340653,775365001,-7.04,67063,-157.57,10,1.3,33.38,2025-12-29T10:04:15.679081636Z,132.3
97,11.22,851.5,4.41,-1.16,-10.25,17,-0.01,0,0,1.75,79,123553,129340653,775365001,-5.94,67061,-156.73,10,1.3,33.33,2025-12-29T10:04:18.740162424Z,174.66
96,11.2,855.8,4.41,-1.04,-10.24,100416,-0.01,0,0,1.17,75,123430,129340795,775365146,-5.35,67031,-156.72,11,0.48,33.24,2025-12-29T10:04:22.647165314Z,-177.19
97,11.27,856.3,4.5,-1.03,-10.28,100416,-0.02,0,0.01,1.17,74,123253,129340840,775365193,-5.25,66966,-156.33,11,0.48,33.38,2025-12-29T10:04:25.909837743Z,167.22
96,11.3,858,4.38,-1.07,-10.37,100416,-0.02,0.01,0,1.17,77,123232,129340913,775365306,-5.42,66963,-157.1,11,0.65,33.28,2025-12-29T10:04:29.59750815Z,147.68
96,11.31,858,4.33,-1.06,-10.4,100416,-0.02,0.01,0.01,1.17,75,123278,129340913,775365306,-5.37,66891,-157.4,11,0.65,33.38,2025-12-29T10:04:33.297667291Z,157.51
97,11.33,860.4,4.32,-1.04,-10.42,100416,-0.02,0,0.02,1.21,73,123371,129340945,775365486,-5.25,67222,-157.48,10,0.72,33.28,2025-12-29T10:04:36.97844307Z,172.01
98,11.19,860.4,2.6,-2.27,-10.64,100416,0,0.1,-0.07,1.21,76,123393,129341040,775365513,-11.73,67221,-166.24,10,1.22,33.28,2025-12-29T10:04:40.87543005Z,89.63
95,11.22,860.4,3.26,-1.28,-10.66,100416,-0.02,0.01,0.01,1.21,74,123518,129341040,775365513,-6.56,67155,-163,10,1.22,33.33,2025-12-29T10:04:44.779144473Z,145.18
98,11.28,860.4,3.71,-1.13,-10.59,100416,0,0,0.01,1.21,73,123329,129341040,775365513,-5.74,66770,-160.7,10,1.22,33.38,2025-12-29T10:04:48.018177174Z,-116.57
96,11.3,859.1,3.75,-1.54,-10.55,100416,0.01,0.03,0.03,1.17,79,123285,129340963,775365081,-7.85,66395,-160.43,11,1.65,33.33,2025-12-29T10:04:51.721396096Z,65.38
95,11.25,859.1,4.22,-1.4,-10.34,100416,-0.02,0,0.01,1.17,71,123357,129340963,775365081,-7.16,66349,-157.81,11,1.65,33.33,2025-12-29T10:04:55.614834326Z,165.3
96,11.29,857.5,4.24,-1.4,-10.37,100416,-0.02,0,0.01,1.76,70,123314,129341041,775364851,-7.14,66261,-157.77,10,1.65,33.28,2025-12-29T10:04:59.508965815Z,173.56
96,11.29,857.9,4.31,-1.41,-10.34,100416,-0.02,0.02,0.01,1.76,73,123236,129341115,775364981,-7.15,66169,-157.37,10,2.09,33.38,2025-12-29T10:05:03.655733287Z,135.2
95,11.29,858.8,4.36,-1.31,-10.33,100416,-0.01,0,0,1.76,79,123219,129340996,775364843,-6.65,66135,-157.1,10,0.87,33.38,2025-12-29T10:05:07.083337692Z,-170.89
96,11.27,860,4.44,-1.37,-10.27,100416,-0.01,0,0,1.76,78,123155,129341008,775364988,-6.97,66066,-156.63,10,1.06,33.33,2025-12-29T10:05:10.55768097Z,167.54
98,11.29,860,4.42,-1.35,-10.3,100416,-0.02,0.02,0.02,1.76,77,123187,129341008,775364988,-6.88,66033,-156.79,10,1.06,33.38,2025-12-29T10:05:14.453215935Z,138.72
98,11.35,861.6,4.69,-1.24,-10.26,100416,-0.01,0,0.01,1.77,74,123121,129341036,775364798,-6.29,65996,-155.44,10,1.24,33.38,2025-12-29T10:05:18.044391475Z,180
97,11.32,863.7,4.55,-1.18,-10.3,100416,0.01,0,0.02,1.77,70,123184,129340953,775364973,-5.96,66910,-156.15,10,0.85,33.38,2025-12-29T10:05:21.42608375Z,0
96,11.16,863.7,3.87,-1.66,-10.33,100416,0.03,-0.13,0.13,1.77,77,123110,129340953,775364973,-8.57,65939,-159.48,10,0.85,33.57,2025-12-29T10:05:24.693056041Z,-75.38
95,11.22,863.7,4.61,-1.31,-10.14,100416,-0.02,0.01,0.01,1.77,74,123211,129340836,775364631,-6.71,65906,-155.57,10,0.8,33.33,2025-12-29T10:05:27.976558645Z,145.64
97,11.14,863.3,4.53,-1.27,-10.1,100416,-0.02,0,0.01,1.17,76,123264,129340836,775364631,-6.54,65920,-155.87,11,0.8,33.38,2025-12-29T10:05:31.452669184Z,171.08
96,11.25,863.3,4.61,-1.21,-10.19,100416,-0.02,0,0.01,1.17,76,123193,129340836,775364631,-6.18,65848,-155.65,11,0.8,33.38,2025-12-29T10:05:34.931030306Z,172.06
95,11.18,863,4.6,-1.29,-10.11,100416,-0.02,0,0.01,1.17,73,123263,129340780,775364468,-6.64,65851,-155.52,11,0.54,33.33,2025-12-29T10:05:38.829647171Z,175.56
96,11.32,863,4.63,-1.25,-10.25,100416,-0.02,0.01,0,1.17,75,123271,129340780,775364468,-6.34,65843,-155.67,11,0.54,33.33,2025-12-29T10:05:42.722306963Z,153.84
98,11.29,863,4.64,-1.21,-10.22,100416,-0.01,0.01,0,1.17,77,123108,129340773,775364338,-6.15,65793,-155.58,11,1.28,33.38,2025-12-29T10:05:46.405361997Z,158.59
96,11.29,861.7,4.66,-1.43,-10.18,100416,-0.01,0,0,1.77,74,123182,129340773,775364338,-7.3,65800,-155.41,10,1.28,33.42,2025-12-29T10:05:49.687161128Z,-169.07
97,11.21,860.9,4.64,-1.35,-10.12,100416,-0.02,0,0.01,1.17,70,123220,129340645,775364305,-6.89,65765,-155.39,11,0.83,33.33,2025-12-29T10:05:53.147471233Z,-178.51
96,11.32,860.3,4.71,-1.3,-10.21,100416,-0.02,0.01,0,1.17,71,123290,129340705,775364073,-6.61,65793,-155.24,11,0.83,33.28,2025-12-29T10:05:57.05302816Z,144.64
98,11.31,860.3,4.68,-1.28,-10.22,100416,-0.01,0,0,1.17,76,123213,129340705,775364073,-6.48,65726,-155.39,11,0.83,33.42,2025-12-29T10:06:00.545340125Z,-170.71
97,11.22,860.3,4.68,-1.3,-10.11,100416,-0.01,0,0.01,1.17,79,123271,129340705,775364073,-6.67,65715,-155.14,11,0.83,33.47,2025-12-29T10:06:04.033728459Z,177.9
97,11.23,859.7,4.66,-1.28,-10.13,100416,-0.01,0,0,1.77,75,123278,129340953,775364095,-6.53,65695,-155.29,10,0.93,33.38,2025-12-29T10:06:07.495475341Z,175.68
96,11.27,859.7,4.78,-1.13,-10.14,100416,-0.01,0.01,0,1.77,71,123197,129340953,775364095,-5.75,65678,-154.75,10,0.93,33.47,2025-12-29T10:06:10.824540052Z,152.89
95,11.22,859.7,4.68,-1.25,-10.12,100416,-0.02,0,0.01,1.77,78,123342,129341033,775364486,-6.42,65708,-155.2,10,2,33.47,2025-12-29T10:06:14.241038392Z,166.57
95,11.25,860,4.69,-1.24,-10.15,100416,-0.02,0,0.01,1.78,72,123357,129340968,775364375,-6.3,65659,-155.21,10,2,33.42,2025-12-29T10:06:17.729009035Z,168.44
98,11.32,860,4.75,-1.32,-10.19,100416,-0.01,0,0,1.78,76,123332,129341050,775364558,-6.7,65667,-154.98,10,1.48,33.33,2025-12-29T10:06:21.011148372Z,165
97,11.29,860.4,4.7,-1.29,-10.19,100416,-0.01,-0.01,0.01,1.78,75,123278,129341066,775364438,-6.55,65635,-155.21,10,0.63,33.47,2025-12-29T10:06:24.490026662Z,-145.99
95,11.27,860.4,4.68,-1.31,-10.17,100416,-0.01,0,0.01,1.78,70,123209,129341066,775364438,-6.7,65575,-155.3,10,0.63,33.52,2025-12-29T10:06:27.988702596Z,173.07
95,11.29,861.8,4.68,-1.31,-10.19,100416,-0.02,0.02,0,1.78,71,123304,129341100,775364988,-6.67,65623,-155.33,11,0.74,33.42,2025-12-29T10:06:31.676203282Z,133.49
96,11.27,861.8,4.73,-1.23,-10.15,100416,-0.01,-0.02,0.01,1.78,75,123179,129340945,775364495,-6.26,65560,-155.03,11,2.33,33.42,2025-12-29T10:06:35.348910243Z,-104.04
97,11.25,864.4,4.78,-1.21,-10.11,100416,-0.02,0.01,0.01,1.78,73,123266,129340945,775364495,-6.18,65591,-154.7,10,2.33,33.52,2025-12-29T10:06:39.23246604Z,148.47
95,11.26,867.5,4.78,-1.31,-10.11,100416,-0.02,0.01,0.01,1.78,76,123273,129340890,775364283,-6.68,65550,-154.67,11,2.2,33.42,2025-12-29T10:06:42.727596078Z,152.51
95,11.23,867.5,4.76,-1.24,-10.09,100416,-0.01,0.01,0.01,1.78,78,123338,129340531,775362240,-6.34,65790,-154.72,11,3.32,33.38,2025-12-29T10:06:46.608045499Z,158.2
96,11.49,855.6,4.04,-0.36,-10.75,100416,-0.11,-0.13,0.07,1.17,78,123198,129340531,775362240,-1.82,65787,-159.39,11,3.32,33.42,2025-12-29T10:06:49.896331266Z,-129.31
98,11.3,841.6,4.25,-1.45,-10.36,100416,0.05,-0.02,0.04,1.78,78,123368,129340435,775361225,-7.38,65630,-157.69,10,1.17,33.33,2025-12-29T10:06:53.832595266Z,-26.08
95,11.33,841.6,4.31,-1.52,-10.37,100416,-0.08,0.05,0.05,1.78,76,123430,129340435,775361225,-7.69,65624,-157.43,10,1.17,33.47,2025-12-29T10:06:56.848400106Z,151.56
96,11.4,823.4,4.6,-1.46,-10.33,100416,-0.01,-0.01,0.01,1.17,74,123367,129340395,775359891,-7.34,65582,-156.01,11,1.67,33.42,2025-12-29T10:06:59.925087698Z,-132.35
95,11.61,815.2,4.76,-1.6,-10.47,100416,-0.01,0.01,0.01,1.17,72,123258,129340438,775359403,-7.94,65604,-155.55,11,1.24,33.38,2025-12-29T10:07:02.980648748Z,126.98
96,11.27,810.6,4.65,-1.44,-10.16,100416,-0.01,0,0,1.17,71,123243,129340441,775359456,-7.35,65587,-155.43,11,1.24,33.52,2025-12-29T10:07:06.061362579Z,-171.8
95,11.33,810.6,4.63,-1.49,-10.24,100416,-0.01,0,0,1.17,79,123175,129340441,775359456,-7.56,65528,-155.67,11,1.24,33.47,2025-12-29T10:07:09.138648188Z,170.63
97,11.24,810.6,4.58,-1.48,-10.15,100416,-0.02,0.01,0.01,1.17,77,123182,129340441,775359456,-7.59,65520,-155.73,11,1.24,33.52,2025-12-29T10:07:12.199829086Z,147.99
98,11.27,810.6,4.6,-1.53,-10.18,100416,-0.02,-0.01,0.01,1.17,78,123163,129340441,775359456,-7.82,65495,-155.67,11,1.24,33.47,2025-12-29T10:07:15.281103554Z,-161.14
96,11.3,810.6,4.53,-1.51,-10.24,100416,-0.01,0,0.01,1.17,70,123150,129340441,775359456,-7.66,65490,-156.13,11,1.24,33.52,2025-12-29T10:07:18.558012732Z,-170.91
95,11.35,810.6,4.65,-1.53,-10.24,100416,-0.02,0.01,0.01,1.17,74,123151,129340441,775359456,-7.77,65485,-155.58,11,1.24,33.47,2025-12-29T10:07:21.617853172Z,146.52
96,11.32,819.3,4.67,-1.48,-10.21,100416,-0.01,0,0,1.17,75,123023,129340960,775360801,-7.51,65411,-155.4,11,0.41,33.47,2025-12-29T10:07:24.700625693Z,166.48
97,11.29,820.2,4.68,-1.57,-10.16,100416,-0.02,0.01,0,1.79,71,124050,129340923,775360793,-8.01,69893,-155.28,10,0.8,33.57,2025-12-29T10:07:27.773353546Z,155.53
95,13.18,825.4,1.13,2.98,-12.79,100416,-1.31,-0.52,-0.69,1.17,79,125297,129341021,775361515,13.06,67858,-174.97,11,0.65,33.61,2025-12-29T10:07:30.839286751Z,-158.29
97,10.25,827.8,-6.73,0.89,-7.68,100416,-0.01,-0.02,0.02,1.2,77,124852,129341060,775361726,5,67287,138.74,10,0.26,33.52,2025-12-29T10:07:33.915418882Z,-124.53
98,10.09,829.7,-7.51,0.64,-6.7,100416,-0.01,0.01,0,1.2,72,124412,129341036,775362023,3.66,66990,131.74,10,0.52,33.47,2025-12-29T10:07:36.984265855Z,136.43
98,10.09,831,-7.64,0.63,-6.56,100416,-0.02,0.01,0.01,1.37,79,124154,129340995,775362133,3.58,66830,130.63,10,0.52,33.47,2025-12-29T10:07:40.147674173Z,162.1
98,10.01,831,-7.68,0.67,-6.38,100416,-0.02,0.01,0.01,1.37,73,124089,129340995,775362133,3.83,66803,129.73,10,0.52,33.57,2025-12-29T10:07:43.137618047Z,154.78
97,10.01,831,-7.71,0.62,-6.36,100416,-0.02,0,0.01,1.37,72,124085,129340995,775362133,3.52,66732,129.5,10,0.52,33.47,2025-12-29T10:07:46.193856635Z,-178.8
95,10,831,-7.73,0.64,-6.31,100416,-0.01,-0.01,0,1.37,76,123769,129340995,775362133,3.68,66405,129.22,10,0.52,33.52,2025-12-29T10:07:49.273685414Z,-140.19
95,10.19,831,-7.3,0.86,-7.06,100416,0.03,0.02,-0.04,1.37,78,123117,129340995,775362133,4.85,66418,134.03,10,0.52,33.47,2025-12-29T10:07:52.343755051Z,34.54
98,10.04,831,-7.69,0.72,-6.42,100416,-0.01,0,0,1.37,72,122924,129340995,775362133,4.1,66319,129.84,10,0.52,33.52,2025-12-29T10:07:55.419350952Z,-161.9
97,10.04,831,-7.7,0.69,-6.41,100416,-0.02,0.01,0.01,1.37,73,123066,129340995,775362133,3.95,66445,129.77,10,0.52,33.42,2025-12-29T10:07:58.482383316Z,160.71
95,10.11,831,-7.72,0.74,-6.49,100416,-0.02,0,0.01,1.37,70,123058,129340995,775362133,4.18,66479,130.02,10,0.52,33.57,2025-12-29T10:08:01.553417341Z,169.97
95,10.07,831,-7.72,0.68,-6.43,100416,-0.02,0.01,0.01,1.37,79,122879,129340758,775362973,3.89,66331,129.76,10,0.39,33.47,2025-12-29T10:08:04.633672829Z,141.63
97,10.03,833.3,-7.7,0.69,-6.39,100416,-0.01,0,0,1.79,72,123010,129340731,775363025,3.94,66489,129.72,10,0.17,33.52,2025-12-29T10:08:07.705200267Z,175.88
96,10,833.6,-7.71,0.65,-6.34,100416,-0.02,0.01,0.01,1.79,72,123086,129340745,775363133,3.71,66560,129.41,10,0.13,33.57,2025-12-29T10:08:10.781927547Z,151.51
98,10.04,833.4,-7.72,0.69,-6.39,100416,-0.02,0.01,0.01,1.79,78,123176,129340713,775363206,3.92,66632,129.58,10,0.3,33.57,2025-12-29T10:08:13.857219219Z,150.57
98,10.05,833.1,-7.76,0.64,-6.36,100416,-0.01,0.01,-0.01,1.79,72,123090,129340706,775363291,3.65,66484,129.34,10,0.11,33.47,2025-12-29T10:08:16.924024549Z,132.27
98,10.01,833.1,-8.04,0.64,-5.93,100416,-0.01,0.01,0.02,1.79,77,123458,129340670,775363338,3.65,66356,126.39,10,0.11,33.47,2025-12-29T10:08:19.989843405Z,157.23
97,9.9,833,-8.07,0.79,-5.68,100416,-0.01,0,0.01,1.79,74,124338,129340633,775363376,4.55,66953,125.13,10,0.11,33.57,2025-12-29T10:08:23.059784923Z,-163.3
97,10.99,833,-2.26,-2.17,-10.53,100416,-0.02,-0.09,0.02,1.79,79,124952,129340633,775363376,-11.4,67659,167.9,10,0.11,33.47,2025-12-29T10:08:26.127077427Z,-103.12
96,10.65,833,-4.62,-1.84,-9.42,100416,-0.02,0,0,1.79,72,124935,129340633,775363376,-9.95,67685,153.86,10,0.11,33.47,2025-12-29T10:08:29.197225668Z,172.13
98,10.82,833,-4.58,-1.76,-9.64,100416,-0.02,0,0.01,1.79,72,124890,129340633,775363376,-9.39,67641,154.56,10,0.11,33.52,2025-12-29T10:08:32.278522258Z,173.45
98,10.68,833,-4.71,-1.87,-9.41,100416,-0.01,0,0.01,1.79,71,124821,129340633,775363376,-10.05,67597,153.42,10,0.11,33.42,2025-12-29T10:08:35.358287796Z,-176.29
97,10.73,833,-4.7,-1.76,-9.49,100416,-0.01,0,0.01,1.79,74,124513,129340633,775363376,-9.45,66818,153.66,10,0.11,33.52,2025-12-29T10:08:38.439471851Z,166.24
98,11.3,833,-2.77,-1.96,-10.78,100416,-0.1,0.62,-0.11,1.79,71,124048,129340633,775363376,-9.98,66651,165.6,10,0.11,33.57,2025-12-29T10:08:41.499200171Z,98.93
95,11.3,833,-2.28,-2.88,-10.68,100416,0,-0.11,0.03,1.79,78,124075,129340633,775363376,-14.76,66741,167.97,10,0.11,33.52,2025-12-29T10:08:45.182172517Z,-90.07
98,10.68,833,-3.08,-2.83,-9.82,100416,-0.03,0.32,-0.05,1.79,77,124081,129340685,775363726,-15.37,66705,162.58,10,0.93,33.57,2025-12-29T10:08:48.254574145Z,95.32
97,11.08,833,-1.93,-2.91,-10.52,100416,-0.02,0.16,-0.03,1.79,79,124064,129340685,775363726,-15.24,66724,169.58,10,0.93,33.52,2025-12-29T10:08:51.332679645Z,98.48
97,10.79,833,-2.32,-2.94,-10.12,100416,-0.03,0.12,-0.03,1.79,76,124264,129340685,775363726,-15.83,66570,167.08,10,0.93,33.57,2025-12-29T10:08:54.39912898Z,105.89
96,11.09,833,-2,-2.81,-10.54,100416,-0.01,0.01,0,1.79,76,124774,129340685,775363726,-14.68,67097,169.26,10,0.93,33.47,2025-12-29T10:08:57.470622782Z,151.1
95,11.02,833,-1.91,-2.82,-10.48,100416,-0.02,0,0,1.79,70,124330,129340685,775363726,-14.82,66575,169.67,10,0.93,33.42,2025-12-29T10:09:00.610417818Z,169.05
98,11.07,833,-2.01,-2.83,-10.51,101,-0.02,0,0,1.79,71,124337,129340558,775363695,-14.81,66543,169.17,10,0.48,33.52,2025-12-29T10:09:03.612211056Z,171.22
97,11.06,833,-1.92,-2.81,-10.52,101,-0.02,0.01,0.01,1.79,77,124315,129340468,775363648,-14.73,66492,169.67,10,1.06,33.52,2025-12-29T10:09:06.691044727Z,161.71
98,11.08,837.7,-2.01,-2.77,-10.53,101,-0.02,0,0,1.8,77,124499,129340445,775363660,-14.46,66826,169.18,11,0.39,33.52,2025-12-29T10:09:09.764629883Z,171.32
96,11.06,838.4,-1.95,-2.81,-10.51,101,-0.01,0.01,0.01,1.8,78,124857,129340496,775363738,-14.73,67084,169.5,11,0.37,33.47,2025-12-29T10:09:12.837839279Z,160.94
97,11.06,839.4,-1.95,-2.78,-10.53,101,-0.02,0.01,0,1.8,78,124963,129340480,775363770,-14.56,67155,169.49,11,0.24,33.38,2025-12-29T10:09:15.899514703Z,157.91
95,11.08,840.3,-2.13,-2.83,-10.5,101,-0.01,0,0.01,1.8,75,124506,129340505,775363840,-14.77,67012,168.55,11,0.09,33.47,2025-12-29T10:09:18.974805647Z,-164.6
95,11.08,843.5,-1.67,-2.78,-10.6,101,-0.01,-0.11,0.03,1.21,75,124427,129340605,775364070,-14.52,66988,171.05,10,0.09,33.57,2025-12-29T10:09:22.244176442Z,-93.09
97,11.33,843.5,-3.77,-3.05,-10.24,101,0.01,-0.03,0.01,1.21,79,124267,129340605,775364070,-15.63,66799,159.77,10,0.09,33.52,2025-12-29T10:09:25.527388367Z,-77.31
96,11.26,843.5,-1.92,-2.83,-10.73,101,-0.02,0.03,-0.01,1.21,71,124450,129340605,775364070,-14.53,66598,169.86,10,0.09,33.52,2025-12-29T10:09:28.601646625Z,126.07
97,11.09,843.5,-2.01,-2.79,-10.54,101,-0.01,-0.01,0.01,1.21,76,124501,129340911,775364913,-14.59,66620,169.19,10,1,33.57,2025-12-29T10:09:31.679152386Z,-132.53
97,11.03,856,-2,-2.77,-10.48,101,-0.01,-0.01,0.01,1.21,71,124503,129340949,775364880,-14.55,66713,169.19,10,0.94,33.52,2025-12-29T10:09:34.736413657Z,-154.54
95,11.1,855.8,-1.99,-2.83,-10.55,101,-0.01,0.01,0,1.84,73,124499,129340991,775364906,-14.75,66522,169.33,9,0.76,33.47,2025-12-29T10:09:37.817848293Z,123.81
98,11.02,854.1,-2,-2.75,-10.48,101,-0.01,-0.02,0.01,1.21,77,124424,129341088,775364886,-14.45,66468,169.18,10,1.19,33.57,2025-12-29T10:09:40.897147713Z,-126.66
97,11.02,853.1,-2.07,-2.84,-10.44,101,-0.01,0,0,1.84,74,124441,129341208,775364928,-14.94,66446,168.77,9,1.19,33.52,2025-12-29T10:09:43.955400423Z,-175.91
97,11.02,851,-2.05,-2.67,-10.49,101,-0.01,0,0,1.21,75,124345,129341266,775364846,-14.04,66446,168.93,10,1.19,33.61,2025-12-29T10:09:47.027236459Z,166.72
95,11.02,851,-2.02,-2.79,-10.47,101,-0.01,0,0,1.21,73,124368,129341266,775364846,-14.64,66489,169.09,10,1.19,33.38,2025-12-29T10:09:50.152487265Z,165.48
95,11.08,851,-1.93,-2.84,-10.53,101,-0.02,0.01,0,1.21,70,124162,129341266,775364846,-14.87,66695,169.59,10,1.19,33.57,2025-12-29T10:09:53.180036778Z,150.72
98,11.2,851,-1.81,-2.82,-10.68,101,-0.01,-0.16,0.03,1.21,72,124293,129341266,775364846,-14.59,66693,170.38,10,1.19,33.52,2025-12-29T10:09:56.250569276Z,-92.37
98,11.31,851,-0.06,-2.62,-11,101,0,-0.02,0.02,1.21,71,124702,129341266,775364846,-13.41,66897,179.69,10,1.19,33.52,2025-12-29T10:09:59.331620987Z,-99.93
97,11.24,851,-3.5,-2.93,-10.27,101,0,0.35,-0.05,1.21,70,124556,129341266,775364846,-15.12,66544,161.2,10,1.19,33.57,2025-12-29T10:10:02.403399381Z,89.82
97,11.01,851,-2.06,-2.84,-10.44,101,-0.01,0.01,0.01,1.21,71,124550,129341266,775364846,-14.97,66492,168.84,10,1.19,33.47,2025-12-29T10:10:05.467562286Z,160.35
97,11.01,851,-1.96,-2.77,-10.47,101,-0.02,0,0,1.21,78,124574,129341266,775364846,-14.57,66507,169.41,10,1.19,33.61,2025-12-29T10:10:08.529160634Z,168.14
95,11.04,851,-2,-2.78,-10.49,67,-0.02,0.01,0,1.21,71,124470,129341151,775364216,-14.61,66467,169.21,10,0.09,33.47,2025-12-29T10:10:11.602961829Z,147.59
95,11.02,851,-2.01,-2.75,-10.48,67,-0.02,0.01,0,1.21,71,124280,129341135,775364150,-14.45,66351,169.15,10,0.22,33.52,2025-12-29T10:10:14.686240242Z,158.06
96,11.07,847,-1.9,-2.74,-10.55,67,-0.02,0.02,0,1.21,70,124374,129341113,775364178,-14.32,66328,169.81,10,0.15,33.42,2025-12-29T10:10:17.757051018Z,133.49
96,10.93,846.5,-2.02,-2.82,-10.37,67,-0.02,0,0,1.21,72,124190,129341096,775364108,-14.93,66568,168.98,10,0.35,33.52,2025-12-29T10:10:20.828639869Z,164.32
97,10.68,846.4,-1.83,-2.83,-10.14,67,-0.03,0.03,-0.01,1.21,75,124230,129341080,775364106,-15.39,66731,169.77,10,0.41,33.47,2025-12-29T10:10:23.897394453Z,136.36
95,11.26,846.8,-1.12,-2.6,-10.9,67,0.03,-0.42,0.11,1.85,75,124436,129341076,775364166,-13.37,66727,174.13,9,0.41,33.52,2025-12-29T10:10:26.967268434Z,-86.44
98,11.31,847.5,-2.34,-2.91,-10.68,67,-0.02,0.14,-0.02,1.21,74,124276,129341065,775364230,-14.93,66601,167.63,10,0.41,33.47,2025-12-29T10:10:30.107317937Z,96.88
96,10.85,847.5,-0.82,-2.61,-10.5,67,0,-0.05,0.03,1.21,70,124417,129341065,775364230,-13.93,66489,175.54,10,0.41,33.57,2025-12-29T10:10:33.098592029Z,-90
97,11.07,847.5,-1.92,-2.76,-10.55,67,-0.02,0.01,0,1.21,70,124349,129341065,775364230,-14.41,66420,169.7,10,0.41,33.57,2025-12-29T10:10:36.184962686Z,161.04
96,11.09,847.5,-1.96,-2.76,-10.56,67,-0.02,0,0,1.21,74,124321,129341065,775364230,-14.4,66391,169.48,10,0.41,33.47,2025-12-29T10:10:39.264312296Z,172.06
98,11.01,847.5,-1.98,-2.79,-10.47,67,-0.01,0,0.01,1.21,77,124318,129341065,775364230,-14.66,66396,169.32,10,0.41,33.42,2025-12-29T10:10:42.319692759Z,175.6
98,11.05,847.5,-2.02,-2.81,-10.49,67,-0.01,0,0,1.21,77,124287,129341065,775364230,-14.75,66429,169.11,10,0.41,33.47,2025-12-29T10:10:45.407205014Z,-176.39
98,10.98,847.5,-1.96,-2.76,-10.44,67,-0.02,0,0,1.21,70,124231,129341065,775364230,-14.57,66385,169.35,10,0.41,33.52,2025-12-29T10:10:48.473297997Z,178.59
97,11.08,847.5,-2.03,-2.77,-10.54,67,-0.02,0,0,1.21,75,124190,129341065,775364230,-14.45,66376,169.11,10,0.41,33.47,2025-12-29T10:10:51.538628062Z,163.51
97,11.12,847.5,-1.99,-2.73,-10.59,67,-0.01,0.01,0.01,1.21,70,124159,129341016,775364560,-14.21,66385,169.34,10,0.09,33.52,2025-12-29T10:10:54.614687052Z,158.75
96,11.02,847.5,-1.87,-2.8,-10.5,67,-0.01,0,0,1.21,79,124195,129341031,775364576,-14.71,66352,169.9,10,0.2,33.52,2025-12-29T10:10:57.706120457Z,164.42
96,11.04,854.4,-1.94,-2.78,-10.51,67,-0.01,0.01,0,1.21,76,124207,129341021,775364605,-14.58,66397,169.54,10,0.28,33.47,2025-12-29T10:11:00.770138394Z,158.85
98,11.07,854.7,-1.99,-2.82,-10.51,67,-0.01,0,0,1.21,75,124244,129341036,775364616,-14.78,66355,169.27,10,0.35,33.61,2025-12-29T10:11:03.85291631Z,161.4
97,11.13,855.1,-1.96,-2.81,-10.59,67,-0.02,0,0.01,1.21,71,124303,129341048,775364635,-14.61,66356,169.5,10,0.31,33.57,2025-12-29T10:11:06.898006385Z,166.56
95,11.11,855.4,-1.98,-2.77,-10.58,67,-0.01,0,0,1.8,79,124136,129341031,775364636,-14.42,66318,169.42,10,0.31,33.61,2025-12-29T10:11:09.970829214Z,-169.6
96,11.12,855.9,-2,-2.81,-10.57,67,-0.01,0,0,1.8,72,124009,129341031,775364708,-14.63,66490,169.29,10,0.31,33.47,2025-12-29T10:11:13.045187276Z,160.38
97,11.15,855.9,-1.09,-2.74,-10.76,67,-0.02,-0.03,0.02,1.8,70,124123,129341031,775364708,-14.2,66614,174.19,10,0.31,33.47,2025-12-29T10:11:16.143247124Z,-118.28
95,10.95,855.9,-2.76,-2.85,-10.2,67,-0.02,0.03,-0.01,1.8,71,124139,129341031,775364708,-15.1,66414,164.88,10,0.31,33.57,2025-12-29T10:11:19.207044484Z,115.8
95,11,855.9,-1.93,-2.74,-10.48,67,-0.01,0,0.01,1.8,76,124179,129341031,775364708,-14.4,66391,169.58,10,0.31,33.47,2025-12-29T10:11:22.253377255Z,176.05
96,10.88,855.9,-1.97,-2.78,-10.34,67,-0.02,0.01,0,1.8,77,124002,129341031,775364708,-14.81,66303,169.23,10,0.31,33.47,2025-12-29T10:11:25.600401401Z,154.86
95,11.12,855.9,-1.9,-2.81,-10.59,67,-0.01,0,0,1.8,79,124020,129341031,775364708,-14.62,66314,169.81,10,0.31,33.52,2025-12-29T10:11:28.811360145Z,160.31
96,11.02,855.9,-1.95,-2.76,-10.48,67,-0.02,0,0,1.8,78,124277,129340958,775364775,-14.52,66772,169.46,10,0.17,33.61,2025-12-29T10:11:31.894012929Z,165.53
96,11.28,852.8,-1.21,-2.69,-10.89,67,-0.05,-0.02,0.02,1.8,78,124082,129340975,775364736,-13.78,66444,173.66,10,0.31,33.47,2025-12-29T10:11:34.955708341Z,-160.11
96,10.93,852.6,-2.59,-2.74,-10.26,67,-0.01,0.01,0,1.8,77,124221,129340958,775364761,-14.5,66436,165.86,10,0.31,33.52,2025-12-29T10:11:38.029266719Z,135.27
95,10.97,852.6,-2.62,-2.71,-10.3,67,-0.01,0.01,0,1.8,74,124316,129340958,775364761,-14.32,66457,165.7,10,0.31,33.52,2025-12-29T10:11:41.104070081Z,147.26
97,11.06,852.6,-2.61,-2.7,-10.41,67,-0.01,0.01,0,1.8,77,124133,129340958,775364761,-14.13,66420,165.93,10,0.31,33.47,2025-12-29T10:11:44.169685596Z,156.48
97,11.03,852.6,-2.55,-2.72,-10.38,67,-0.02,0,0,1.8,74,123942,129340958,775364761,-14.28,66719,166.21,10,0.31,33.57,2025-12-29T10:11:47.664176588Z,166.84
96,11.02,852.6,-2.04,-2.64,-10.51,67,-0.02,0.03,-0.01,1.8,72,123892,129340958,775364761,-13.86,66652,169.03,10,0.31,33.47,2025-12-29T10:11:50.73482666Z,123.63
95,11.07,854,-3.35,-2.83,-10.17,67,-0.07,0.22,-0.06,1.18,74,123898,129341013,775364890,-14.79,66381,161.78,11,0.17,33.42,2025-12-29T10:11:53.818720388Z,107.27
95,10.98,853.7,-2.48,-2.72,-10.35,67,-0.02,0.01,0,1.8,77,123924,129341026,775364880,-14.32,66394,166.52,10,0.11,33.52,2025-12-29T10:11:56.885196067Z,163.95
96,10.98,853.6,-2.62,-2.73,-10.3,67,-0.02,-0.02,0.01,1.8,71,123799,129341031,775364873,-14.41,66344,165.71,10,0.11,33.42,2025-12-29T10:11:59.944462547Z,-131.75
95,10.97,853.3,-2.55,-2.73,-10.31,67,-0.02,0.01,0,1.8,73,123778,129341034,775364860,-14.43,66355,166.1,10,0.11,33.38,2025-12-29T10:12:03.026075293Z,153.43
98,10.94,853.3,-2.46,-2.72,-10.31,67,-0.01,0,0,1.8,72,123782,129341034,775364860,-14.38,66348,166.58,10,0.11,33.47,2025-12-29T10:12:06.083479848Z,178.88
97,10.98,853.3,-2.44,-2.69,-10.37,67,-0.01,0.01,0.01,1.8,75,123823,129341034,775364860,-14.17,66369,166.77,10,0.11,33.61,2025-12-29T10:12:09.171334145Z,145.23
96,10.99,853.3,-2.52,-2.78,-10.33,67,-0.01,0.01,0,1.8,73,124669,129341034,775364860,-14.65,67102,166.3,10,0.11,33.42,2025-12-29T10:12:12.453315649Z,149.81
97,10.68,853.3,-2.21,-2.63,-10.11,67,0.31,-0.42,0.08,1.8,75,124857,129341034,775364860,-14.27,66593,167.69,10,0.11,33.42,2025-12-29T10:12:15.507261618Z,-54.17
97,10.5,853.3,-3.38,-2.35,-9.66,67,0.21,0.97,-0.05,1.8,77,124062,129341005,775364780,-12.95,66674,160.71,10,0.39,33.57,2025-12-29T10:12:18.580010771Z,77.75
96,10.98,853.3,-2.46,-2.74,-10.34,67,0,-0.07,0.01,1.8,77,123824,129340990,775364720,-14.47,66567,166.61,10,0.13,33.52,2025-12-29T10:12:21.654363576Z,-93.56
96,11.01,852.9,-2.1,-2.68,-10.47,67,-0.01,-0.04,0.01,1.8,77,123732,129340983,775364686,-14.09,66175,168.66,10,0.33,33.47,2025-12-29T10:12:24.732915636Z,-99.16
98,10.98,852.9,-2.6,-2.69,-10.33,67,-0.01,-0.02,0.01,1.8,77,123872,129340976,775364655,-14.18,66240,165.85,10,0.13,33.57,2025-12-29T10:12:28.015431654Z,-113.96
96,10.95,852.8,-2.58,-2.72,-10.28,67,-0.01,0,0.01,1.94,77,124155,129340973,775364611,-14.4,66354,165.91,9,0.07,33.47,2025-12-29T10:12:31.278424644Z,170.54
95,10.89,852.8,-2.35,-2.68,-10.3,67,0.01,-0.01,0.01,1.94,78,123948,129340973,775364611,-14.24,66277,167.14,9,0.07,33.47,2025-12-29T10:12:34.347675237Z,-54.26
97,11.08,852.8,-2.72,-2.74,-10.38,67,-0.02,0.01,0.01,1.94,73,124050,129340973,775364611,-14.31,66312,165.31,9,0.07,33.52,2025-12-29T10:12:37.418257636Z,159.71
98,10.94,852.8,-2.71,-2.65,-10.26,67,-0.02,0.01,0,1.94,78,124156,129340973,775364611,-14.01,66352,165.21,9,0.07,33.57,2025-12-29T10:12:40.548928076Z,158.61
95,10.96,852.8,-2.75,-2.71,-10.25,67,-0.01,0,0.01,1.94,73,124164,129340970,775364646,-14.33,66343,165,9,0.13,33.52,2025-12-29T10:12:43.586521323Z,163.11
98,10.98,852.8,-2.75,-2.63,-10.3,67,-0.02,0,0,1.94,79,124112,129340960,775364685,-13.88,66305,165.05,9,0.09,33.57,2025-12-29T10:12:46.640520377Z,-165.85
95,10.94,856.8,-2.68,-2.64,-10.27,67,-0.02,0,0,1.8,78,124055,129340973,775364716,-13.97,66313,165.36,10,0.46,33.42,2025-12-29T10:12:49.714838497Z,170.33
98,10.98,857.4,-2.77,-2.69,-10.28,67,-0.02,0,0.01,1.8,73,124016,129340978,775364743,-14.18,66245,164.95,10,0.17,33.47,2025-12-29T10:12:52.778801177Z,162.62
96,10.95,857.5,-2.67,-2.67,-10.28,67,-0.02,0.01,0,1.8,78,124127,129340990,775364740,-14.1,66339,165.42,10,0.13,33.52,2025-12-29T10:12:55.858645322Z,161.57
98,10.91,858.3,-2.7,-2.76,-10.21,67,-0.01,0,0,1.8,73,124071,129340988,775364783,-14.65,66334,165.17,10,0.3,33.52,2025-12-29T10:12:58.917593744Z,163.7
98,10.98,858.8,-2.73,-2.72,-10.28,67,-0.02,0,0,1.8,75,124066,129340988,775364803,-14.35,66332,165.15,10,0.3,33.47,2025-12-29T10:13:01.999554823Z,163.39
95,10.94,859.6,-2.72,-2.65,-10.26,67,-0.02,0,0,1.8,74,124458,129340981,775364853,-14.03,66308,165.14,10,0.3,33.47,2025-12-29T10:13:05.065726326Z,167.23
95,11,859.6,-2.24,-2.85,-10.39,67,-0.03,-0.01,-0.01,1.8,75,123628,129340981,775364853,-15.01,65339,167.85,10,0.3,33.47,2025-12-29T10:13:08.142333309Z,-161.31
96,11.49,859.6,0.06,-2.51,-11.21,67,-0.04,0.29,0.01,1.8,75,123999,129340981,775364853,-12.61,65626,-179.69,10,0.3,33.57,2025-12-29T10:13:11.220032086Z,97.87
98,11.1,859.6,-4.09,-3.15,-9.83,67,-0.06,-0.15,-0.01,1.8,79,123666,129340981,775364853,-16.46,65391,157.39,10,0.3,33.47,2025-12-29T10:13:14.29444645Z,-111.98
98,10.61,859.6,-1.73,-2.64,-10.13,67,-0.03,-0.11,0.02,1.8,74,123583,129340981,775364853,-14.42,65562,170.33,10,0.3,33.47,2025-12-29T10:13:17.34848183Z,-105.41
96,11.27,859.6,-1.54,-2.66,-10.84,67,0.01,-0.08,0.02,1.8,78,123949,129340981,775364853,-13.63,65922,171.92,10,0.3,33.33,2025-12-29T10:13:20.541940261Z,-85.82
97,11.06,859.6,-2.2,-2.8,-10.47,67,-0.02,0.01,0,1.8,76,123663,129340981,775364853,-14.68,65349,168.11,10,0.3,33.57,2025-12-29T10:13:23.701581722Z,148.82
95,11.1,857.6,-1.57,-2.67,-10.66,67,-0.03,0.09,-0.02,1.8,79,123793,129340945,775364848,-13.92,65783,171.61,10,0.2,33.47,2025-12-29T10:13:26.775085171Z,106.52
96,11.08,857.2,-2.29,-2.72,-10.5,67,-0.02,0,0.01,1.8,73,123793,129340955,775364851,-14.22,65893,167.71,10,0.56,33.57,2025-12-29T10:13:29.853443402Z,-172.38
96,11.08,855.7,-2.19,-2.77,-10.51,67,-0.01,0,0,1.8,70,123989,129340953,775364781,-14.49,65942,168.22,10,0.07,33.52,2025-12-29T10:13:33.133433951Z,-174.29
97,11.02,855.1,-2.28,-2.76,-10.42,67,-0.02,0,0,1.8,73,123934,129340945,775364738,-14.52,65711,167.63,10,0.07,33.52,2025-12-29T10:13:36.210123826Z,-176.99
95,11.07,855.1,-2.24,-2.75,-10.49,67,-0.02,0.01,0.01,1.8,74,123896,129340945,775364738,-14.36,65927,167.94,10,0.07,33.57,2025-12-29T10:13:39.266177867Z,154.73
96,10.83,855.1,-2.26,-2.84,-10.2,67,-0.01,0.01,0.01,1.8,71,123916,129340945,775364738,-15.19,66240,167.5,10,0.07,33.47,2025-12-29T10:13:42.336200813Z,122.74
98,10.47,855.1,-2.64,-3.03,-9.67,67,-0.02,0.42,-0.04,1.8,72,123834,129340945,775364738,-16.8,66152,164.75,10,0.07,33.52,2025-12-29T10:13:45.430258369Z,92.49
97,11.06,855.1,-0.96,-2.66,-10.69,67,0.01,-0.18,0.06,1.8,79,123878,129340945,775364738,-13.94,66232,174.86,10,0.07,33.52,2025-12-29T10:13:48.486735077Z,-86.39
96,11.12,855.1,-2.43,-2.77,-10.49,67,0.02,-0.3,0.07,1.8,78,123760,129340945,775364738,-14.4,66076,166.96,10,0.07,33.57,2025-12-29T10:13:51.568714321Z,-87.05
98,10.88,855.1,-1.25,-2.68,-10.47,67,0,-0.02,0.02,1.8,78,124014,129341010,775364534,-14.26,66119,173.17,10,0.17,33.57,2025-12-29T10:13:54.627619117Z,-100.26
95,10.98,853.5,-2.21,-2.76,-10.39,67,-0.02,0,0.01,1.8,76,124111,129341038,775364536,-14.54,66102,168.01,10,0.15,33.52,2025-12-29T10:13:57.72273403Z,-165.38
98,11.02,853.6,-2.17,-2.71,-10.46,67,-0.02,0,0.01,1.8,78,123627,129341036,775364536,-14.21,65497,168.26,10,0.15,33.52,2025-12-29T10:14:00.77342049Z,175.95
98,11.28,853.6,-3.06,-2.96,-10.45,67,-0.03,0.16,-0.04,1.8,76,123672,129341050,775364546,-15.22,65669,163.66,10,0.72,33.47,2025-12-29T10:14:03.846020182Z,98.78
95,11.17,853.4,-2.64,-2.89,-10.46,67,-0.02,-0.36,0.06,1.8,77,123448,129341046,775364525,-14.98,65538,165.86,10,0.26,33.47,2025-12-29T10:14:06.919542038Z,-93.24
96,11.02,852.5,-1.65,-2.77,-10.53,67,0.05,-0.31,0.07,1.18,76,123893,129341051,775364488,-14.58,65835,171.11,11,0.26,33.47,2025-12-29T10:14:10.064728819Z,-81.15
98,10.95,851,-2.22,-2.78,-10.36,67,-0.01,0,0.01,1.18,75,123761,129341026,775364445,-14.69,65714,167.92,11,0.26,33.52,2025-12-29T10:14:13.053638892Z,-172.87
97,11.02,851,-2.14,-2.69,-10.47,67,-0.01,0,0,1.18,74,123863,129341026,775364445,-14.14,65764,168.45,11,0.26,33.52,2025-12-29T10:14:16.135893661Z,164.88
96,10.98,851,-2.22,-2.72,-10.4,67,-0.02,0.01,0,1.18,78,123868,129341026,775364445,-14.34,65736,167.96,11,0.26,33.47,2025-12-29T10:14:19.206816469Z,163.77
98,11,851,-2.27,-2.82,-10.39,67,-0.02,0,0,1.18,72,123849,129341026,775364445,-14.85,65689,167.66,11,0.26,33.57,2025-12-29T10:14:22.285156984Z,172.22
98,11.03,851,-2.24,-2.76,-10.44,67,-0.02,0,0,1.18,71,123842,129341026,775364445,-14.48,65764,167.87,11,0.26,33.52,2025-12-29T10:14:25.351029172Z,165.43
97,10.97,851,-2.23,-2.74,-10.38,67,-0.01,0.01,0,1.18,77,126099,129341026,775364445,-14.46,67836,167.88,11,0.26,33.52,2025-12-29T10:14:28.419796963Z,147.26
95,10.41,851,-7.38,-2.06,-7.05,67,-0.05,-0.16,0,1.18,72,124602,129341026,775364445,-11.42,66355,133.71,11,0.26,33.57,2025-12-29T10:14:31.504588356Z,-107.97
97,12.65,851,-9.91,-2.52,-7.44,67,0.07,0.13,-0.07,1.18,79,124268,129341026,775364445,-11.51,66120,126.89,11,0.26,33.52,2025-12-29T10:14:34.584026653Z,62.97
97,9.95,851,-4.59,-1.92,-8.61,67,0.02,0.29,-0.05,1.18,74,124516,129341036,775364411,-11.12,66119,151.96,11,0.56,33.57,2025-12-29T10:14:37.633947428Z,86.8
95,10.4,849.9,-5.88,-1.95,-8.36,67,-0.1,0.37,-0.09,1.22,78,124747,129341031,775364416,-10.82,66717,144.86,10,0.19,33.47,2025-12-29T10:14:40.775626748Z,104.49
96,10.56,850.8,-6.21,-2.19,-8.26,67,0.06,0.06,0.04,1.85,74,124711,129341031,775364413,-11.98,66164,143.06,9,0.04,33.57,2025-12-29T10:14:43.795596554Z,46.71
97,10.94,850,-3.34,-2.8,-10.03,67,-0.02,0.01,0,1.22,70,124529,129341025,775364381,-14.84,66039,161.56,10,0.15,33.47,2025-12-29T10:14:46.858726489Z,152.28
98,10.96,850.6,-3.39,-2.81,-10.04,67,-0.02,0,0,1.18,78,123825,129341001,775364411,-14.83,65537,161.34,11,0.26,33.52,2025-12-29T10:14:49.932307267Z,166.56
97,10.8,850.9,-3.22,-2.89,-9.9,67,0.02,-0.24,0.06,1.79,74,124476,129340983,775364433,-15.52,65789,161.97,10,0.26,33.57,2025-12-29T10:14:53.070286481Z,-86.06
95,10.89,851.5,-3.4,-2.79,-9.96,67,-0.01,-0.01,0.01,1.18,75,124295,129340963,775364503,-14.86,65678,161.17,11,0.26,33.52,2025-12-29T10:14:56.070906903Z,-159.75
96,10.87,851.5,-3.45,-2.77,-9.93,67,-0.02,0.01,0,1.18,73,124425,129340963,775364503,-14.77,65741,160.86,11,0.26,33.57,2025-12-29T10:14:59.141794825Z,148.07
97,11.17,0,-1.79,-2.05,-10.83,0,-0.04,0.03,-0.02,0,70,126823,129341288,775364791,-10.57,68448,170.63,0,1.06,32.72,2025-12-29T08:57:30.293214056Z,145.7
96,11.17,845.5,-1.72,-2.03,-10.85,0,-0.03,0.02,-0.01,1.23,77,126953,129341243,775364755,-10.47,68431,170.98,9,0.2,32.62,2025-12-29T08:57:33.894563399Z,146.72
98,11.09,844.9,-2.67,-2.14,-10.55,0,-0.02,0.13,-0.04,1.23,77,126841,129341285,775364748,-11.14,68367,165.79,9,0.5,32.77,2025-12-29T08:57:37.563659047Z,100.45
96,11.04,844.9,-1.27,-1.95,-10.79,0,0,0.01,0,1.23,75,126826,129341285,775364748,-10.17,68259,173.31,9,0.5,32.67,2025-12-29T08:57:41.465206592Z,97.39
96,11.05,844.9,-1.95,-2.03,-10.68,0,-0.02,0,0,1.23,71,127411,129341285,775364748,-10.59,68470,169.63,9,0.5,32.67,2025-12-29T08:57:44.963716771Z,170.54
97,11.04,841.8,-2.11,-2.07,-10.64,0,-0.02,-0.03,0.02,1.23,71,127804,129341475,775364691,-10.78,68547,168.76,9,0.33,32.62,2025-12-29T08:57:48.624186078Z,-124.37
98,11.11,841.8,-2.25,-2.14,-10.67,0,-0.01,0.01,0,1.23,71,127653,129341475,775364691,-11.12,68504,168.07,9,0.33,32.81,2025-12-29T08:57:52.126962427Z,158.4
97,11.1,842.8,-2.18,-2.12,-10.68,0,-0.02,0,0,1.23,73,127572,129341410,775364586,-11.01,68476,168.48,9,0.61,32.62,2025-12-29T08:57:55.791198317Z,169.56
96,11.11,842.8,-2.22,-2.07,-10.69,0,-0.02,0,0,1.23,77,127507,129341410,775364586,-10.75,68463,168.28,9,0.61,32.72,2025-12-29T08:57:59.47288546Z,169.96
95,11.13,842.6,-2.22,-2.17,-10.69,0,-0.01,0,0,1.23,73,127619,129341414,775364550,-11.25,68424,168.24,9,0.11,32.67,2025-12-29T08:58:03.171428718Z,167.12
97,11.05,842.8,-2.02,-2.25,-10.62,0,-0.01,0.02,0,1.23,79,128007,129341390,775364511,-11.77,68411,169.24,9,0.35,32.67,2025-12-29T08:58:07.070934142Z,130.09
97,10.93,842.8,-1.37,-2.13,-10.63,0,-0.03,0.05,-0.01,1.23,75,128226,129341390,775364511,-11.25,68456,172.66,9,0.35,32.67,2025-12-29T08:58:10.965609194Z,122.78
96,11.04,842.8,-1.99,-2.25,-10.62,0,-0.01,0,0.01,1.23,76,127987,129341390,775364511,-11.78,68336,169.38,9,0.35,32.67,2025-12-29T08:58:14.876865032Z,-176.42
96,11.07,842.8,-2,-2.22,-10.66,0,-0.02,0,0,1.23,73,127949,129341390,775364511,-11.58,68281,169.37,9,0.35,32.77,2025-12-29T08:58:18.530141846Z,168.96
95,11.14,842.8,-2.03,-2.28,-10.72,0,-0.02,0,0,1.23,73,127930,129341390,775364511,-11.8,68294,169.28,9,0.35,32.67,2025-12-29T08:58:22.415160082Z,175.83
97,11.03,846.1,-2.03,-2.27,-10.6,0,-0.01,0.01,0.01,1.23,75,127849,129341160,775364376,-11.89,68240,169.18,9,0.35,32.67,2025-12-29T08:58:26.522258181Z,147.65
98,11.06,847.2,-2.1,-2.18,-10.64,0,-0.01,0,0,1.23,76,127820,129341100,775364360,-11.37,68206,168.82,9,0.17,32.67,2025-12-29T08:58:30.247746795Z,171.95
95,11.02,847.2,-2.06,-2.23,-10.6,0,-0.02,0.01,0,1.23,75,127704,129341085,775364385,-11.67,68113,169,9,0.33,32.72,2025-12-29T08:58:33.899996681Z,148.32
97,11.05,847.2,-2,-2.25,-10.63,0,-0.02,0.01,0,1.23,70,127756,129341030,775364401,-11.74,68156,169.32,9,0.09,32.72,2025-12-29T08:58:37.572151554Z,143.37
97,11.02,847.2,-2.02,-2.27,-10.59,0,-0.02,0.01,0,1.23,75,127617,129341030,775364401,-11.91,68091,169.19,9,0.09,32.72,2025-12-29T08:58:40.888772704Z,154.75
95,11.02,849.6,-2.08,-2.24,-10.58,0,-0.01,0.01,0,1.23,76,127755,129340976,775364421,-11.71,68179,168.89,9,0.19,32.77,2025-12-29T08:58:44.124172003Z,153.43
95,11.09,850,-2.04,-2.29,-10.66,0,-0.02,0,0,1.23,70,127814,129340948,775364398,-11.92,68365,169.18,9,0.19,32.81,2025-12-29T08:58:47.189302963Z,163.74
97,11.12,850,-1.97,-2.3,-10.7,0,-0.01,0,0,1.23,76,127699,129340948,775364398,-11.93,68187,169.58,9,0.19,32.72,2025-12-29T08:58:50.329888624Z,-173.4
95,10.96,850,-2.07,-2.27,-10.52,0,-0.02,0,0,1.23,78,127676,129340948,775364398,-11.94,68183,168.89,9,0.19,32.58,2025-12-29T08:58:53.340946257Z,-179.01
98,11.17,850,-2.06,-2.29,-10.74,0,-0.02,0.01,0,1.23,78,127610,129340948,775364398,-11.83,68173,169.14,9,0.19,32.72,2025-12-29T08:58:56.401697101Z,160.53
98,11.01,850,-2.04,-2.26,-10.58,0,-0.01,-0.01,0,1.23,75,127745,129340948,775364398,-11.82,68231,169.09,9,0.19,32.67,2025-12-29T08:58:59.485185914Z,-159.33
97,11.03,850,-2.1,-2.28,-10.59,0,-0.02,0.02,0,1.23,76,127689,129340906,775364366,-11.91,68210,168.78,9,0.35,32.81,2025-12-29T08:59:02.550618361Z,129.93
96,11.04,850,-2.02,-2.26,-10.61,0,-0.02,0,0,1.23,75,127626,129340930,775364368,-11.84,68155,169.21,9,0.39,32.72,2025-12-29T08:59:05.624305699Z,-175.17
97,11.08,850.5,-2.05,-2.25,-10.65,0,-0.02,0,0,1.23,74,127744,129340925,775364353,-11.72,68188,169.11,9,0.07,32.72,2025-12-29T08:59:08.693063204Z,175.67
98,10.99,850.4,-2.09,-2.21,-10.56,0,-0.02,0,0,1.23,79,127775,129340933,775364364,-11.63,68157,168.83,9,0.19,32.72,2025-12-29T08:59:11.759622411Z,176.74
98,11.08,851,-2.03,-2.25,-10.66,0,-0.02,0.01,0,1.23,75,127647,129340891,775364381,-11.72,68109,169.23,9,0.33,32.72,2025-12-29T08:59:14.835288521Z,151.07
96,11.11,851,-2.06,-2.26,-10.68,0,-0.01,0,0,1.23,73,127694,129340900,775364390,-11.72,68118,169.07,9,0.09,32.72,2025-12-29T08:59:17.911608381Z,-178.25
97,11.05,850.7,-2.09,-2.28,-10.61,0,-0.02,0.01,0,1.23,74,127646,129340936,775364385,-11.89,68098,168.88,9,0.13,32.62,2025-12-29T08:59:20.992202285Z,159.63
97,11.08,850.2,-2.07,-2.23,-10.65,0,-0.02,0,0,1.23,70,127558,129340983,775364386,-11.61,68095,169.01,9,0.13,32.72,2025-12-29T08:59:24.055094815Z,168.95
96,11,850.2,-2.06,-2.23,-10.57,0,-0.02,0,0.01,1.23,79,127597,129340983,775364386,-11.68,68112,168.99,9,0.13,32.67,2025-12-29T08:59:27.124273167Z,173.1
98,11.03,850.2,-2.1,-2.22,-10.6,0,-0.02,0,0,1.23,72,127576,129340983,775364386,-11.62,68143,168.79,9,0.13,32.67,2025-12-29T08:59:30.465342756Z,163.56
96,11.05,850.2,-2.06,-2.24,-10.62,0,-0.01,0,0,1.23,71,127522,129340983,775364386,-11.69,68090,169.03,9,0.13,32.62,2025-12-29T08:59:33.474895184Z,176.42
97,11.14,850.2,-2.15,-2.26,-10.69,0,-0.02,0,0,1.23,71,127452,129341005,775364276,-11.71,68074,168.66,9,0.28,32.77,2025-12-29T08:59:36.544993037Z,177.1
96,11.12,850.2,-2.01,-2.28,-10.69,0,-0.02,0,0,1.23,70,127587,129341051,775364246,-11.83,68093,169.37,9,0.15,32.67,2025-12-29T08:59:39.636848261Z,171.44
97,11.04,848.9,-2.07,-2.24,-10.61,0,-0.02,0.01,0,1.24,70,127636,129341096,775364225,-11.71,68420,168.96,9,0.11,32.86,2025-12-29T08:59:42.68349006Z,160.17
97,11.06,849.1,-2.08,-2.29,-10.62,0,-0.01,-0.07,0.02,1.24,72,127547,129341086,775364186,-11.97,68171,168.94,9,0.24,32.77,2025-12-29T08:59:45.775708209Z,-98.54
98,11.03,848.3,-2.15,-2.26,-10.58,0,-0.02,0.01,0,1.24,73,127672,129341136,775364193,-11.81,68171,168.54,9,0.43,32.77,2025-12-29T08:59:48.834782132Z,158.73
98,11.09,849.2,-2.12,-2.26,-10.65,0,-0.01,0,0,1.24,70,127472,129341086,775364166,-11.74,68090,168.75,9,0.06,32.72,2025-12-29T08:59:51.914499462Z,163.9
95,11.03,849.5,-2.09,-2.28,-10.59,0,-0.02,0,0,1.24,73,127413,129341065,775364163,-11.93,68094,168.82,9,0.24,32.77,2025-12-29T08:59:54.980681984Z,172.57
96,11.08,848.9,-2.13,-2.26,-10.63,0,-0.02,0.01,0,1.24,78,127440,129341103,775364185,-11.79,68136,168.69,9,0.24,32.67,2025-12-29T08:59:58.054026776Z,162.32
95,10.97,848.9,-2.1,-2.23,-10.53,0,-0.01,0.01,0,1.24,78,127523,129341103,775364185,-11.75,68153,168.71,9,0.24,32.77,2025-12-29T09:00:01.133672622Z,153.43
96,11.1,848.9,-2.14,-2.26,-10.66,0,-0.02,0,0,1.24,79,127395,129341103,775364185,-11.75,68109,168.67,9,0.24,32.77,2025-12-29T09:00:04.190610391Z,170.95
96,11.08,848.9,-2.11,-2.3,-10.63,0,-0.02,0,0,1.24,70,127397,129341103,775364185,-11.97,68089,168.77,9,0.24,32.72,2025-12-29T09:00:07.278634555Z,170.17
95,11.1,848.9,-2.1,-2.23,-10.67,0,-0.02,0,0,1.24,78,127411,129341103,775364185,-11.61,68076,168.88,9,0.24,32.77,2025-12-29T09:00:10.642712009Z,-164.95
95,11.03,848.9,-2.07,-2.28,-10.59,0,-0.01,0,0.01,1.24,77,127427,129341103,775364185,-11.93,68112,168.95,9,0.24,32.72,2025-12-29T09:00:13.819598816Z,162.65
98,11.07,849.8,-2.1,-2.18,-10.65,0,-0.02,0.01,0,1.24,79,127364,129341048,775364261,-11.35,68094,168.85,9,0.19,32.72,2025-12-29T09:00:16.900755494Z,152.69
98,11.07,849.3,-2.16,-2.27,-10.62,0,-0.02,0,0,1.24,78,127336,129341103,775364270,-11.83,68076,168.51,9,0.48,32.72,2025-12-29T09:00:19.961824297Z,166.3
95,11.07,848.8,-2.15,-2.26,-10.62,0,-0.02,0,0,1.29,76,127267,129341103,775364270,-11.76,68044,168.58,8,0.48,32.81,2025-12-29T09:00:23.038249489Z,-178.99
96,11.04,848.8,-2.08,-2.21,-10.62,0,-0.01,0,0,1.29,78,127277,129341103,775364270,-11.55,68040,168.9,8,0.48,32.62,2025-12-29T09:00:26.104829029Z,169.93
97,11.02,848.8,-2.17,-2.26,-10.56,0,-0.01,0,0,1.29,75,127306,129341103,775364270,-11.86,68020,168.37,8,0.48,32.62,2025-12-29T09:00:29.184703513Z,159.3
98,10.98,848.8,-2.12,-2.28,-10.53,0,-0.01,0.01,0,1.29,74,127334,129341103,775364270,-11.97,68003,168.6,8,0.48,32.77,2025-12-29T09:00:32.456553848Z,161.1
97,11.03,848.8,-2.21,-2.29,-10.56,0,-0.02,0.01,0,1.29,75,127352,129341103,775364270,-12,68047,168.18,8,0.48,32.62,2025-12-29T09:00:35.525859313Z,141.97
98,11.06,848.8,-2.09,-2.25,-10.63,0,-0.01,0,0,1.29,77,127285,129341015,775364320,-11.74,68066,168.85,8,0.37,32.81,2025-12-29T09:00:38.60171221Z,-167.36
95,11.11,850.9,-2.18,-2.18,-10.68,0,-0.02,0.01,0,1.3,70,126316,129340945,775364311,-11.31,69641,168.44,8,0.15,32.72,2025-12-29T09:00:41.679691265Z,155.73
97,10.07,851.1,1.75,0.01,-9.92,0,0.04,0.33,-1.09,1.3,75,125602,129340940,775364270,0.07,67569,-169.98,8,2.89,32.72,2025-12-29T09:00:44.947719751Z,83.66
96,11.1,851.6,3.24,3.3,-10.09,0,-0.04,0.02,0.03,1.3,79,125635,129340998,775364093,17.31,67082,-162.2,8,2.82,32.62,2025-12-29T09:00:48.024303709Z,155.8
98,11.11,853.2,3.53,3.33,-10,0,-0.02,0.01,0.02,1.24,77,125521,129341071,775364215,17.44,66777,-160.53,9,2.82,32.72,2025-12-29T09:00:51.105930911Z,160.92
96,11.01,853.2,3.91,3.85,-9.54,0,0.01,0,-0.01,1.24,70,125449,129341071,775364215,20.5,66677,-157.72,9,2.82,32.72,2025-12-29T09:00:54.180482757Z,-23.86
98,11.13,853.2,3.87,3.55,-9.82,0,-0.02,0.01,0.01,1.24,75,125161,129341071,775364215,18.61,66529,-158.51,9,2.82,32.67,2025-12-29T09:00:57.242753452Z,156.65
97,11.13,853.2,3.91,3.6,-9.78,0,-0.01,0,0,1.24,79,124999,129341071,775364215,18.86,66373,-158.2,9,2.82,32.62,2025-12-29T09:01:00.37036423Z,152.14
97,11.12,853.2,3.99,3.59,-9.73,0,-0.02,0.01,0,1.24,73,125048,129341071,775364215,18.86,66351,-157.7,9,2.82,32.77,2025-12-29T09:01:03.382271961Z,158.09
95,11.05,853.2,3.95,3.59,-9.67,0,-0.01,0,0,1.24,74,126789,129341071,775364215,18.96,67578,-157.77,9,2.82,32.72,2025-12-29T09:01:06.450297173Z,-174.67
96,9.61,853.2,-7.94,-4.98,-2.12,30,0.21,-0.21,0.27,1.24,79,127000,129341139,775364145,-31.21,67369,104.95,9,2.8,32.77,2025-12-29T09:01:09.52376113Z,-44.24
95,10.61,853.2,-9.17,-3.91,-3.63,30,0.05,-0.05,0.29,1.24,74,128438,129341188,775363905,-21.64,70761,111.58,9,0.78,32.67,2025-12-29T09:01:12.804973181Z,-46.52
96,10.55,847.7,-1.96,5.89,-8.53,30,-1.41,0.84,-0.57,1.24,75,126866,129341186,775363830,33.96,69687,167.08,9,1.85,32.67,2025-12-29T09:01:15.879705737Z,149.23
98,10.13,848.1,-2.24,8.19,-5.52,30,-0.07,0,0.03,1.4,72,127487,129341146,775363701,53.97,68446,157.93,8,0.06,32.67,2025-12-29T09:01:18.923317614Z,-178.25
97,11,846.9,-1.25,0.15,-10.93,30,-0.14,0.12,-0.03,2.09,73,126609,129341146,775363701,0.79,67809,173.45,7,0.06,32.72,2025-12-29T09:01:22.024454194Z,139.79
97,11.01,845.2,-1.12,0.74,-10.93,30,-0.03,-0.04,0.01,1.24,77,125737,129341220,775363626,3.88,69330,174.15,9,0.06,32.67,2025-12-29T09:01:25.090359384Z,-126.9
98,10.83,845.2,-2.07,7.95,-7.05,30,0.49,0.26,0.2,1.24,74,125200,129341220,775363626,47.25,68298,163.62,9,0.06,32.72,2025-12-29T09:01:28.165677654Z,27.81
95,10.07,845.2,-2.51,8.26,-5.18,30,-0.01,0,0.01,1.24,77,124654,129341220,775363626,55.11,68014,154.17,9,0.06,32.72,2025-12-29T09:01:31.238939364Z,-168.57
96,10.04,845.2,-2.5,8.29,-5.09,30,-0.02,0.01,0,1.24,79,124033,129341220,775363626,55.63,67733,153.87,9,0.06,32.72,2025-12-29T09:01:34.524795555Z,154.42
97,10.09,845.2,-2.5,8.32,-5.11,30,-0.02,0,0,1.24,78,124084,129341220,775363626,55.63,67463,153.93,9,0.06,32.86,2025-12-29T09:01:37.59073133Z,168.14
98,11.04,845.6,-0.7,2.26,-10.78,30,-0.07,0.06,-0.01,1.24,74,123719,129341095,775363633,11.81,67463,176.29,9,0.37,32.72,2025-12-29T09:01:40.656087362Z,139.58
95,9.98,845.6,-2.94,8.26,-4.79,30,-0.02,-0.01,0.01,1.24,76,123412,129341125,775363655,55.77,67354,148.46,9,0.11,32.72,2025-12-29T09:01:44.135508193Z,-166.29
98,10.03,845,-2.95,8.3,-4.81,30,-0.02,0.01,0,1.25,75,123312,129341165,775363681,55.79,67267,148.44,9,0.09,32.67,2025-12-29T09:01:47.209316292Z,163.61
98,9.94,845,-2.94,8.22,-4.76,30,-0.02,0,0,1.25,78,123283,129341165,775363681,55.79,67275,148.32,9,0.09,32.72,2025-12-29T09:01:50.333350273Z,165.86
96,9.95,845,-2.97,8.22,-4.74,30,-0.01,0.01,0,1.25,70,123289,129341165,775363681,55.78,67269,147.89,9,0.09,32.81,2025-12-29T09:01:53.362096306Z,138.37
96,9.91,845,-2.92,8.2,-4.73,30,-0.02,0,0.01,1.25,76,123310,129341165,775363681,55.88,67230,148.27,9,0.09,32.67,2025-12-29T09:01:56.421556813Z,169.74
98,10.03,845,-2.96,8.21,-4.94,30,-0.01,0,0,1.25,77,123306,129341165,775363681,54.95,67240,149.02,9,0.09,32.77,2025-12-29T09:01:59.493627111Z,167.42
96,9.97,845,-2.95,8.22,-4.82,30,-0.02,0.01,0,1.25,76,123312,129341025,775363811,55.49,67228,148.5,9,0.2,32.72,2025-12-29T09:02:02.571399331Z,161.69
97,9.89,846.5,-2.93,8.19,-4.72,30,-0.01,0.01,0,1.63,79,123324,129340985,775363873,55.85,66935,148.17,8,0.8,32.86,2025-12-29T09:02:05.647491052Z,152.15
96,9.94,846,-2.92,8.35,-4.53,30,-0.01,0.01,0,1.25,76,123252,129341021,775363880,57.15,66984,147.23,9,0.09,32.72,2025-12-29T09:02:08.721006645Z,150.2
95,9.93,845.2,-2.89,8.33,-4.58,30,-0.02,0,0,1.25,74,123495,129341086,775363866,56.99,66991,147.72,9,0.11,32.81,2025-12-29T09:02:11.77867958Z,162.33
97,10.54,845.2,-2.4,8.26,-6.1,30,0.11,0.08,-0.04,1.35,77,123608,129341095,775363890,51.59,67391,158.52,10,0.13,32.77,2025-12-29T09:02:14.853728247Z,34.95
96,9.71,845,-3.26,7.97,-4.5,30,-0.04,1.27,-0.13,1.09,79,123520,129341101,775363963,55.11,67413,144.13,10,0.74,32.72,2025-12-29T09:02:17.925479548Z,91.97
95,9.71,845.2,-4.25,8.07,-3.34,30,-0.11,0.71,-0.15,1.09,76,123171,129341075,775364000,56.2,67331,128.14,10,0.74,32.72,2025-12-29T09:02:21.012053164Z,99.04
97,9.95,845.2,-2.94,8.1,-4.97,30,0,0.57,0.01,1.09,75,123124,129341075,775364000,54.51,66917,149.39,10,0.74,32.67,2025-12-29T09:02:24.07964947Z,90.09
95,10.09,845.2,-2.34,8.44,-5.01,30,0,-1.08,0.16,1.09,79,123159,129341075,775364000,56.74,67635,154.97,10,0.74,32.72,2025-12-29T09:02:27.143900285Z,-89.89
96,9.98,845.2,-2.46,8.35,-4.89,30,-0.06,0.15,0.08,1.09,79,123047,129341075,775364000,56.73,67450,153.32,10,0.74,32.67,2025-12-29T09:02:30.336672189Z,111.53
97,10,845.2,-2.24,8.32,-5.07,30,-0.02,0,0,1.09,79,123190,129341075,775364000,56.31,67473,156.15,10,0.74,32.81,2025-12-29T09:02:33.499023291Z,165.17
95,9,845.2,-2.1,7.81,-3.96,30,0.11,-0.11,0,1.09,76,123130,129341143,775364118,60.12,67525,152.05,10,0.5,32.67,2025-12-29T09:02:36.566516962Z,-44.49
98,10.1,845.1,-2.62,8.26,-5.17,30,-0.01,0,0,1.09,72,123109,129341110,775364135,54.95,67518,153.14,10,0.06,32.67,2025-12-29T09:02:39.6332956Z,172.13
96,10.04,845.6,-2.58,8.23,-5.13,30,-0.01,0,0.01,1.09,73,123091,129341083,775364145,55.11,67501,153.26,10,0.26,32.67,2025-12-29T09:02:42.705251687Z,174.29
95,10.02,846.2,-2.55,8.21,-5.14,30,-0.01,0,0,1.17,73,123102,129341034,775364135,55.08,67475,153.65,9,0.37,32.72,2025-12-29T09:02:45.782155391Z,168.19
98,10.02,846.4,-2.61,8.22,-5.09,30,-0.01,0.01,0,1.17,74,123112,129341023,775364146,55.17,67511,152.87,9,0.09,32.77,2025-12-29T09:02:48.860681964Z,157.57
95,10,846.7,-2.65,8.19,-5.09,30,-0.02,0,0,1.09,73,123118,129341001,775364116,54.99,67504,152.54,10,0.22,32.81,2025-12-29T09:02:51.930200459Z,162.02
96,10.04,846.8,-2.68,8.19,-5.15,30,-0.02,0,0.01,1.09,76,123145,129341030,775364096,54.64,67537,152.54,10,0.09,32.62,2025-12-29T09:02:54.995031026Z,168.61
98,10.13,847.2,-2.62,8.28,-5.2,30,-0.01,0,0.01,1.09,72,123129,129341001,775364088,54.89,67539,153.22,10,0.09,32.62,2025-12-29T09:02:58.073176544Z,175.6
96,9.97,847.2,-2.53,8.23,-5.03,30,-0.02,-0.01,0,1.09,78,123167,129341001,775364088,55.62,67376,153.29,10,0.09,32.67,2025-12-29T09:03:01.22708307Z,-160.05
96,9.98,847.2,-1.94,8.36,-5.09,30,0,-0.01,0,1.09,77,122977,129341001,775364088,56.94,67147,159.1,10,0.09,32.72,2025-12-29T09:03:04.216037258Z,-96.17
98,10.07,847.2,-2.1,8.21,-5.43,30,-0.02,0.01,0.01,1.09,75,122924,129341001,775364088,54.67,67692,158.82,10,0.09,32.72,2025-12-29T09:03:07.288035314Z,164.93
96,10.04,847.2,-1.91,8.42,-5.12,30,-0.01,-0.01,0,1.09,78,122927,129341001,775364088,57.01,67679,159.54,10,0.09,32.77,2025-12-29T09:03:10.422594091Z,-158.29
98,10.13,847.2,-1.96,8.45,-5.22,30,-0.02,0,0,1.09,78,122985,129341001,775364088,56.6,67602,159.38,10,0.09,32.72,2025-12-29T09:03:13.449465082Z,-178.32
95,10.05,847.2,-2.3,8.26,-5.25,30,-0.01,-0.01,0.01,1.09,78,123010,129340931,775364263,55.25,67588,156.35,10,0.44,32.81,2025-12-29T09:03:16.947506402Z,-157.54
97,10.08,847.2,-2.35,8.28,-5.24,30,-0.02,0.01,0.01,1.09,71,124222,129340933,775364280,55.24,67724,155.83,10,0.43,32.77,2025-12-29T09:03:20.084248642Z,148.09
97,8.92,847.9,-2.89,1.7,-8.27,30,-1.17,0.77,-0.87,1.17,70,123815,129340900,775364308,10.95,68024,160.74,9,0.43,32.62,2025-12-29T09:03:23.684757769Z,146.48
98,10.33,847.9,1.81,8.85,-5.02,30,0.07,-0.04,-0.06,1.17,73,124089,129340900,775364308,58.9,68368,-160.15,9,0.43,32.86,2025-12-29T09:03:27.178169087Z,-32.76
95,10.25,849.3,1.36,8.56,-5.48,30,-0.01,0.01,0,1.09,78,124147,129340835,775364395,56.58,68533,-166.09,10,0.35,32.72,2025-12-29T09:03:30.846314402Z,140.96
95,9.52,849.3,1.09,7.67,-5.53,30,0.01,-0.15,0.01,1.09,78,124056,129340835,775364395,53.68,68536,-168.84,10,0.35,32.72,2025-12-29T09:03:34.563609655Z,-86.82
95,10.79,849.9,1.47,9.29,-5.29,34,-0.02,-0.04,0.04,1.09,76,123948,129340798,775364621,59.44,68571,-164.46,10,0.5,32.67,2025-12-29T09:03:38.230348396Z,-113.46
95,10.25,850.6,1.35,8.62,-5.37,34,-0.02,0.01,0,1.09,70,123887,129340723,775364826,57.3,68618,-165.86,10,1.37,32.72,2025-12-29T09:03:42.119860567Z,151.87
96,10.3,851.3,1.27,8.57,-5.58,34,-0.01,0,0,1.09,79,123913,129340643,775364953,56.27,68718,-167.19,10,1.15,32.77,2025-12-29T09:03:45.995144799Z,180
95,10.47,851.3,1.39,8.75,-5.58,34,-0.01,0.04,-0.01,1.09,71,123862,129340643,775364953,56.71,68677,-165.99,10,1.15,32.67,2025-12-29T09:03:49.908244662Z,98.78
97,10.27,851.3,1.27,8.64,-5.4,34,0,0,0.03,1.09,78,123944,129340643,775364953,57.29,68760,-166.73,10,1.15,32.72,2025-12-29T09:03:53.413233405Z,23.81
96,10.59,851.3,1.37,8.85,-5.65,34,-0.01,-0.02,0.01,1.09,73,123856,129340643,775364953,56.68,68695,-166.38,10,1.15,32.86,2025-12-29T09:03:57.279346466Z,-112.04
98,10.28,851.1,1.27,8.58,-5.53,34,-0.02,0,0,1.09,71,123838,129340680,775365125,56.51,68703,-167.08,10,0.52,32.72,2025-12-29T09:04:00.945661342Z,173.24
95,10.25,851.1,1.23,8.57,-5.49,34,-0.01,0,0,1.09,75,123831,129340730,775365075,56.7,68769,-167.34,10,0.43,32.58,2025-12-29T09:04:04.648245652Z,-178.47
97,10.31,850.6,1.23,8.59,-5.57,34,-0.02,0.01,0,1.09,79,123822,129340780,775365043,56.4,68776,-167.57,10,0.43,32.72,2025-12-29T09:04:08.133670422Z,161.43
98,10.34,849.5,1.21,8.65,-5.54,34,-0.01,0,0,1.09,70,123816,129340843,775364951,56.74,68761,-167.69,10,1.13,32.67,2025-12-29T09:04:11.828679308Z,-169.14
97,10.28,849.5,1.17,8.54,-5.6,34,-0.01,0,0,1.09,76,123796,129340843,775364951,56.2,68771,-168.16,10,1.13,32.62,2025-12-29T09:04:15.500556308Z,161.24
95,10.32,849.5,1.27,8.58,-5.58,34,-0.02,0.01,0.01,1.09,79,123812,129340843,775364951,56.29,68788,-167.15,10,1.13,32.58,2025-12-29T09:04:19.174535929Z,156.32
98,10.23,846.3,1.17,8.56,-5.47,34,-0.01,0,0.01,1.09,78,123807,129341041,775364650,56.83,68785,-167.95,10,1.96,32.72,2025-12-29T09:04:22.876211615Z,-165.96
95,10.32,846.3,1.19,8.6,-5.58,34,-0.01,0.01,0.01,1.09,71,123840,129341041,775364650,56.44,68780,-167.98,10,1.96,32.67,2025-12-29T09:04:26.558335256Z,159.38
95,10.27,846.3,1.21,8.51,-5.63,34,-0.01,0.01,0,1.09,74,123856,129341041,775364650,55.91,68780,-167.9,10,1.96,32.67,2025-12-29T09:04:30.494644387Z,154.98
95,10.24,842.7,1.11,8.52,-5.58,34,-0.01,0,0.01,1.09,70,123801,129341281,775364280,56.28,68796,-168.76,10,1.15,32.62,2025-12-29T09:04:33.947619779Z,180
96,10.29,842.6,1.1,8.56,-5.62,34,-0.02,0,0,1.09,70,123803,129341310,775364194,56.22,68808,-168.91,10,0.85,32.81,2025-12-29T09:04:37.629265074Z,170.31
97,10.33,842.6,1.2,8.58,-5.63,34,-0.02,0,0,1.09,77,123807,129341310,775364194,56.12,68802,-167.98,10,0.85,32.67,2025-12-29T09:04:40.906304148Z,-178.88
97,10.21,843.3,1.11,8.49,-5.57,34,-0.02,0,0,1.09,78,123761,129341271,775364326,56.24,68782,-168.74,10,0.65,32.67,2025-12-29T09:04:44.166500053Z,164.79
96,10.31,843.1,1.16,8.54,-5.66,34,-0.01,0,0,1.09,70,123795,129341298,775364333,55.93,68836,-168.41,10,0.65,32.67,2025-12-29T09:04:47.450427044Z,159.21
97,10.16,843.1,1.13,8.49,-5.47,34,-0.01,0,0.01,1.09,72,123795,129341298,775364333,56.64,68808,-168.3,10,0.65,32.67,2025-12-29T09:04:51.340333206Z,163.7
98,10.25,841.6,1.08,8.54,-5.55,0.04,-0.01,0,0,1.09,75,123768,129341416,775364126,56.51,68811,-168.99,10,0.5,32.67,2025-12-29T09:04:54.809244505Z,179.44
95,10.34,841.6,1.11,8.55,-5.7,0.04,-0.01,0,0,1.09,72,123789,129341416,775364126,55.84,68817,-169.01,10,0.5,32.72,2025-12-29T09:04:58.713399066Z,163.44
97,10.38,841.6,1.12,8.63,-5.66,0.04,-0.02,0,0,1.09,71,123819,129341416,775364126,56.26,68854,-168.77,10,0.5,32.77,2025-12-29T09:05:02.189883112Z,179.58
95,10.32,843.5,1.07,8.54,-5.69,0.04,-0.02,0,0,1.09,78,123805,129341321,775363993,55.87,68814,-169.35,10,0.5,32.72,2025-12-29T09:05:05.872529437Z,167.47
96,10.31,843.5,1.08,8.61,-5.57,25,-0.01,0.01,0,1.09,75,123846,129341268,775364095,56.63,68825,-169.05,10,0.09,32.67,2025-12-29T09:05:09.359496222Z,142.78
98,10.35,843.5,1.11,8.58,-5.69,25,-0.02,0,0.01,1.09,70,123837,129341268,775364095,55.93,68866,-168.98,10,0.09,32.72,2025-12-29T09:05:13.042514574Z,176.37
98,10.29,845.7,1.06,8.49,-5.71,25,-0.02,0.01,0,1.09,70,123761,129341215,775364158,55.61,68830,-169.48,10,0.28,32.62,2025-12-29T09:05:16.327114614Z,160.13
96,10.33,845.7,1.08,8.54,-5.71,25,-0.02,0.01,0,1.09,72,123777,129341215,775364158,55.75,68852,-169.32,10,0.28,32.67,2025-12-29T09:05:20.400441812Z,155.22
96,10.29,847.2,1.09,8.5,-5.7,25,-0.02,0,0,1.09,73,123733,129341155,775364190,55.66,68827,-169.16,10,0.26,32.67,2025-12-29T09:05:24.111061443Z,172.23
98,10.29,847.2,1.12,8.52,-5.65,25,-0.01,0,0,1.09,76,123747,129341123,775364255,55.94,68841,-168.76,10,0.26,32.67,2025-12-29T09:05:27.779161866Z,-178.92
98,10.32,847.2,1.13,8.56,-5.65,25,-0.01,0.01,0,1.09,71,123748,129341123,775364255,56.08,68875,-168.69,10,0.26,32.62,2025-12-29T09:05:31.563849553Z,154.98
95,10.38,847.2,1.15,8.57,-5.74,25,-0.01,0,0,1.09,75,123765,129341123,775364255,55.68,68837,-168.65,10,0.26,32.72,2025-12-29T09:05:34.967099025Z,163.98
98,10.26,847.1,1.11,8.53,-5.58,25,-0.01,0,0,1.18,79,123797,129341155,775364205,56.3,68829,-168.77,10,0.46,32.67,2025-12-29T09:05:38.449253142Z,168.17
98,10.31,847.3,1.13,8.58,-5.61,25,-0.01,0,0,1.09,76,123807,129341141,775364183,56.3,68823,-168.65,10,0.46,32.72,2025-12-29T09:05:42.329497524Z,163.47
96,10.34,848.4,1.17,8.61,-5.62,25,-0.02,0,0.01,1.09,72,123795,129341053,775364273,56.31,68828,-168.28,10,0.13,32.67,2025-12-29T09:05:46.009164275Z,169.86
97,10.26,850.5,1.04,8.51,-5.64,25,-0.01,0,0,1.09,74,123784,129340901,775364421,56.03,68816,-169.58,10,0.41,32.67,2025-12-29T09:05:50.269852859Z,170.35
95,10.33,850.5,1.05,8.54,-5.71,25,-0.02,0,0,1.09,77,123795,129340879,775364495,55.8,68838,-169.62,10,0.46,32.72,2025-12-29T09:05:54.000039977Z,170.33
97,10.33,850.5,1.02,8.54,-5.72,25,-0.02,0,0,1.09,78,123832,129340879,775364495,55.75,68880,-169.85,10,0.46,32.58,2025-12-29T09:05:57.495255143Z,169.11
97,10.25,850.5,1.09,8.51,-5.6,25,-0.02,0.01,0,1.09,78,123806,129340879,775364495,56.18,68767,-169.02,10,0.46,32.67,2025-12-29T09:06:01.194698887Z,154.63
95,10.01,850.5,0.95,8.15,-5.73,25,-0.04,-0.01,0.01,1.09,76,123803,129340895,775364651,54.54,68877,-170.55,10,0.31,32.58,2025-12-29T09:06:04.848220631Z,-169.11
96,10.39,850.5,0.98,8.5,-5.9,25,0,0.02,0,1.09,74,123818,129340810,775364828,54.86,68847,-170.6,10,0.52,32.67,2025-12-29T09:06:08.133723687Z,87.66
97,10.17,851.1,1.16,8.36,-5.68,25,-0.02,0,-0.02,1.19,72,123804,129340810,775364828,55.24,68827,-168.5,9,0.52,32.77,2025-12-29T09:06:11.610695351Z,-172.35
95,10.27,851.1,1.01,8.48,-5.7,25,-0.02,0.01,0,1.19,78,123786,129340810,775364828,55.65,68851,-169.98,9,0.52,32.72,2025-12-29T09:06:15.309108615Z,161.85
95,10.33,851.4,1.09,8.49,-5.79,25,-0.01,0.01,0,1.1,77,123725,129340808,775364938,55.26,68788,-169.36,10,0.57,32.67,2025-12-29T09:06:18.569544767Z,153.22
98,10.2,851.4,1.03,8.43,-5.65,25,-0.01,0,0,1.1,72,123478,129340843,775364983,55.74,68741,-169.65,10,0.22,32.67,2025-12-29T09:06:21.643049365Z,172.21
95,10.5,851.6,1.65,8.49,-5.97,25,-0.15,0.08,0.2,1.1,78,123405,129340800,775365018,53.88,68679,-164.57,10,1.17,32.72,2025-12-29T09:06:24.71433536Z,153.84
96,10.24,851.9,1.95,8.4,-5.51,25,-0.01,0,0,1.1,79,123382,129340786,775364991,55.17,68656,-160.56,10,0.2,32.72,2025-12-29T09:06:27.803761755Z,-165.56
97,10.37,850.6,1.92,8.51,-5.6,25,-0.02,0.01,0,1.1,74,123345,129340868,775364968,55.15,68682,-161.08,10,0.57,32.72,2025-12-29T09:06:30.861681792Z,157.47
95,10.35,850.9,1.89,8.5,-5.6,25,-0.01,0.01,0.01,1.35,71,123392,129340831,775364991,55.18,68709,-161.32,10,0.07,32.62,2025-12-29T09:06:33.926213597Z,140.19
98,10.36,851.6,1.87,8.49,-5.64,25,-0.02,0,0,1.35,71,123396,129340795,775364971,55.04,68685,-161.69,9,0.07,32.72,2025-12-29T09:06:37.205488235Z,173.43
98,10.35,851.6,1.89,8.43,-5.69,25,-0.01,0,0,1.35,76,123427,129340795,775364971,54.61,68683,-161.64,9,0.07,32.72,2025-12-29T09:06:40.318319678Z,-178.25
97,10.38,851.6,1.87,8.47,-5.71,25,-0.02,0,0,1.35,71,123290,129340795,775364971,54.64,68665,-161.89,9,0.07,32.72,2025-12-29T09:06:43.350544067Z,-177.68
95,10.71,851.6,1.66,8.94,-5.67,25,0.13,0.15,0.29,1.35,75,125435,129340795,775364971,56.53,68232,-163.64,9,0.07,32.72,2025-12-29T09:06:46.433554487Z,48.72
98,11.35,851.6,4.81,-0.37,-10.28,25,0.04,-0.15,0.08,1.35,72,125572,129340795,775364971,-1.85,67880,-154.93,9,0.07,32.81,2025-12-29T09:06:49.487842978Z,-76.5
98,11.16,851.6,4.6,-0.31,-10.17,25,-0.02,0,0.01,1.35,73,125358,129340865,775364651,-1.6,67453,-155.67,9,0.78,32.67,2025-12-29T09:06:52.561000323Z,-178.34
96,11.3,851.6,4.96,-0.14,-10.15,25,-0.03,0.02,0.01,1.35,78,125336,129341008,775364565,-0.69,67503,-153.97,9,1.07,32.62,2025-12-29T09:06:55.634091331Z,141.34
98,11.21,848.6,4.77,-0.18,-10.14,25,-0.02,0.01,0,1.1,75,125134,129341056,775364473,-0.94,67370,-154.78,10,0.69,32.67,2025-12-29T09:06:58.921310418Z,160.12
98,11.25,848.7,4.62,-0.51,-10.25,25,0.03,-0.01,0.03,1.1,78,124426,129341120,775364303,-2.59,66718,-155.75,10,1.09,32.77,2025-12-29T09:07:01.998136414Z,-11.6
96,12.62,847.8,8.26,-0.55,-9.53,25,-0.02,-0.64,0.24,1.35,75,125025,129341120,775364303,-2.51,67046,-139.06,9,1.09,32.67,2025-12-29T09:07:05.074892393Z,-92.14
98,11.38,847.8,5.17,-0.31,-10.13,25,-0.02,-0.01,0.02,1.35,78,125514,129341120,775364303,-1.57,68257,-152.96,9,1.09,32.62,2025-12-29T09:07:08.127955421Z,-152.12
95,11.24,847.8,2.25,-2.38,-10.75,25,0.01,-0.05,0.03,1.35,74,125127,129341120,775364303,-12.25,67984,-168.21,9,1.09,32.81,2025-12-29T09:07:11.626727293Z,-74.53
97,11.31,847.8,0.97,-2.8,-10.91,25,-0.02,0.01,0.01,1.35,75,125187,129341120,775364303,-14.33,68075,-174.92,9,1.09,32.72,2025-12-29T09:07:14.679960716Z,159.99
97,11.2,843.2,1.08,-2.74,-10.8,25,-0.02,0,0,1.1,71,125125,129341303,775364251,-14.17,68069,-174.27,10,1.35,32.72,2025-12-29T09:07:17.758292735Z,-169.32
96,11.25,843,1.14,-2.76,-10.84,25,-0.02,0,0,1.5,75,125062,129341313,775364228,-14.21,68033,-173.99,8,1.39,32.77,2025-12-29T09:07:20.836980465Z,-174.02
95,11.2,840.8,1.13,-2.62,-10.84,25,-0.01,0,0.01,1.1,72,125163,129341490,775364283,-13.51,68077,-174.06,10,1.72,32.62,2025-12-29T09:07:23.90511747Z,179.47
95,11.29,839,1.12,-2.66,-10.92,25,-0.03,0,-0.01,1.35,71,125064,129341535,775364370,-13.6,68066,-174.14,10,0.22,32.77,2025-12-29T09:07:26.97274567Z,-178.76
97,11.18,836.6,1.14,-2.72,-10.79,25,-0.01,0,0.01,1.5,77,125045,129341600,775364493,-14.06,68054,-173.94,9,0.22,32.72,2025-12-29T09:07:30.092096383Z,174.23
96,11.25,835,1.18,-2.75,-10.85,25,-0.01,0,0,1.5,74,125076,129341673,775364480,-14.13,68049,-173.8,10,0.22,32.77,2025-12-29T09:07:33.115981731Z,-179.46
98,11.21,835,1.18,-2.73,-10.81,25,-0.02,0.01,0,1.5,73,125065,129341673,775364480,-14.1,68067,-173.79,10,0.22,32.77,2025-12-29T09:07:36.190135097Z,163.27
96,11.18,835,1.26,-2.68,-10.78,25,-0.02,0,0.01,1.5,74,125046,129341673,775364480,-13.88,68095,-173.33,10,0.22,32.67,2025-12-29T09:07:39.460515339Z,179.04
95,11.2,835,1.28,-2.76,-10.78,25,-0.01,0.01,0.01,1.5,78,125097,129341673,775364480,-14.26,68092,-173.25,10,0.22,32.72,2025-12-29T09:07:42.537881229Z,133.47
98,11.38,835,1.26,-2.86,-10.94,25,-0.02,0,0.01,1.5,78,125053,129342305,775364228,-14.54,68051,-173.41,10,0.81,32.81,2025-12-29T09:07:45.618621869Z,174.72
96,11.19,825.4,1.16,-2.72,-10.8,25,-0.02,0,0.01,1.35,74,125236,129342545,775364068,-14.09,68354,-173.85,10,1.04,32.77,2025-12-29T09:07:48.696209144Z,-163.07
96,11.31,824.1,1.53,-2.04,-11.02,25,-0.15,0.13,0.36,1.35,77,124244,129342726,775363936,-10.39,65836,-172.07,10,2.8,32.67,2025-12-29T09:07:52.167842168Z,139.48
96,11.17,824.9,4.61,3.1,-9.69,25,-0.06,0.02,0.02,1.35,77,124019,129342685,775363890,16.09,65685,-154.56,10,0.91,32.77,2025-12-29T09:07:55.67494649Z,162.58
95,11.13,824.9,4.75,2.98,-9.61,25,-0.02,0.01,0.01,1.35,71,124049,129342685,775363890,15.51,65571,-153.68,10,0.91,32.72,2025-12-29T09:07:59.337155344Z,165.79
95,11.11,826.4,4.88,2.99,-9.52,25,-0.01,0.01,0,1.35,75,123992,129342701,775363518,15.63,65523,-152.83,10,0.91,32.72,2025-12-29T09:08:02.623629625Z,148.43
95,11.04,826.4,4.72,2.9,-9.54,25,-0.02,0,0.01,1.35,79,123994,129342701,775363518,15.26,65415,-153.67,10,0.91,32.72,2025-12-29T09:08:06.504419165Z,177.46
95,11.17,827.6,4.89,3.05,-9.57,25,-0.02,-0.01,0.02,1.35,79,123967,129342735,775363335,15.86,65396,-152.93,10,0.81,32.72,2025-12-29T09:08:10.45376519Z,-164.1
96,11.19,829.8,4.93,3,-9.59,25,-0.02,0,0.01,1.35,71,124007,129342636,775363481,15.54,65382,-152.79,10,0.96,32.81,2025-12-29T09:08:13.890252959Z,165.23
98,11.21,830.6,4.85,3.02,-9.65,25,-0.01,0.01,0.01,1.35,70,123925,129342621,775363491,15.64,65350,-153.34,10,0.7,32.77,2025-12-29T09:08:17.365706614Z,143.58
95,11.15,830.6,4.81,2.94,-9.62,25,-0.01,0.01,0,1.35,73,123932,129342621,775363491,15.3,65318,-153.41,10,0.7,32.81,2025-12-29T09:08:20.850878351Z,142.38
95,11.08,830.6,4.77,3,-9.54,25,-0.01,0.01,-0.02,1.35,79,123806,129342621,775363491,15.71,65269,-153.43,10,0.7,32.77,2025-12-29T09:08:24.738369342Z,131.68
95,11.19,830.6,4.86,3,-9.62,25,-0.02,0,0.01,1.35,74,123847,129342621,775363491,15.54,65280,-153.22,10,0.7,32.81,2025-12-29T09:08:28.233629039Z,171.7
95,11.18,837.1,4.92,2.9,-9.61,25,-0.01,0,0,1.1,72,123933,129342166,775363481,15.03,65251,-152.88,10,0.7,32.77,2025-12-29T09:08:32.104728306Z,165.11
98,11.14,837.1,4.86,2.94,-9.58,25,-0.02,0,0.02,1.1,75,123891,129341993,775363658,15.31,65222,-153.12,10,1.17,32.81,2025-12-29T09:08:35.592128783Z,-174.19
96,11.07,837.1,4.81,2.95,-9.53,25,-0.01,0,0,1.1,71,123946,129341993,775363658,15.45,65335,-153.24,10,1.17,32.86,2025-12-29T09:08:39.474191676Z,166.88
96,11.17,843.9,5,2.94,-9.55,25,0,0.01,0.02,1.1,73,123926,129341720,775363673,15.23,65366,-152.39,10,0.67,32.67,2025-12-29T09:08:43.184914209Z,112.25
97,10.78,847.2,4.62,2.82,-9.32,25,-0.03,-0.08,0,1.1,74,124125,129341543,775363890,15.15,65230,-153.62,10,1.11,32.72,2025-12-29T09:08:46.871419842Z,-112.62
95,11.73,847.2,4.94,2.89,-10.24,25,-0.03,0.04,-0.03,1.1,79,124208,129341543,775363890,14.24,65269,-154.23,10,1.11,32.81,2025-12-29T09:08:50.54451871Z,121.07
95,11.1,847.2,4.85,2.89,-9.56,25,-0.02,0,0,1.1,74,124198,129341543,775363890,15.06,65279,-153.09,10,1.11,32.81,2025-12-29T09:08:54.242408221Z,-176.69
95,11.11,847.2,4.86,2.81,-9.59,25,-0.02,0,0.01,1.1,77,124094,129341076,775364426,14.66,65240,-153.14,10,1.39,32.86,2025-12-29T09:08:57.906228888Z,166.54
96,11.07,847.2,4.81,2.88,-9.55,25,-0.02,0,0.01,1.1,73,124050,129341003,775364596,15.05,65215,-153.28,10,1.44,32.77,2025-12-29T09:09:01.795902932Z,-171.74
97,11.15,858.6,4.94,2.92,-9.56,25,-0.02,0.01,0,1.1,70,124061,129340858,775364795,15.2,65213,-152.67,10,1.44,32.77,2025-12-29T09:09:05.277180611Z,162.27
97,11.13,858.6,4.92,3,-9.51,25,-0.02,0,0.01,1.1,72,124071,129340858,775364795,15.63,65219,-152.63,10,1.44,32.77,2025-12-29T09:09:08.975271703Z,-177.23
98,11.13,858.6,4.92,2.93,-9.54,25,-0.02,-0.01,0.01,1.1,78,124012,129340893,775364988,15.25,65184,-152.7,10,1.54,32.81,2025-12-29T09:09:12.65866768Z,-149.4
97,11.15,858.6,4.91,2.93,-9.58,25,-0.01,0.01,0,1.1,77,124066,129340893,775364988,15.25,65199,-152.86,10,1.54,32.81,2025-12-29T09:09:16.967699274Z,149.51
97,11.18,858.6,4.89,2.89,-9.63,25,-0.02,0.01,0,1.1,79,124001,129340893,775364988,14.96,65172,-153.07,10,1.54,32.91,2025-12-29T09:09:20.496654228Z,152.5
98,11.16,858.6,4.94,2.91,-9.57,25,-0.02,0,0,1.1,74,124082,129340893,775364988,15.13,65198,-152.67,10,1.54,32.77,2025-12-29T09:09:23.931423761Z,168.9
97,11.15,862.8,4.99,2.89,-9.54,25,-0.02,0.01,0.01,1.34,73,124067,129340751,775365154,15,65177,-152.39,10,0.28,32.77,2025-12-29T09:09:27.395798265Z,158.94
97,11.07,863,4.89,2.89,-9.5,25,-0.02,0,0.01,1.1,79,124043,129340751,775365154,15.11,65178,-152.76,10,0.28,32.77,2025-12-29T09:09:30.888229324Z,172.23
97,11.16,863.1,4.86,2.89,-9.62,25,-0.01,0,0.01,1.34,79,123995,129340818,775365211,15.03,65153,-153.21,10,1.28,33,2025-12-29T09:09:34.164290935Z,-158.96
98,11.12,862.8,4.95,2.93,-9.51,25,-0.01,0.01,0.01,1.34,73,124014,129340843,775365166,15.26,65121,-152.52,9,1.28,32.81,2025-12-29T09:09:37.6377428Z,139.51
98,11.06,862.8,4.95,2.92,-9.45,25,-0.02,0.01,0.01,1.34,76,123987,129340843,775365166,15.3,65132,-152.37,9,1.28,32.95,2025-12-29T09:09:41.11620138Z,150.91
97,11.13,861.8,4.9,3,-9.54,25,-0.02,0.01,0,1.2,70,124075,129340896,775365096,15.62,65133,-152.82,9,1.28,32.91,2025-12-29T09:09:44.816321236Z,149.62
97,11.13,861.8,4.89,2.94,-9.56,25,-0.01,0.01,0.01,1.2,71,124030,129340896,775365096,15.3,65164,-152.88,9,1.28,32.81,2025-12-29T09:09:47.891099605Z,149.19
97,11.11,861.8,4.92,2.95,-9.51,25,-0.01,0.01,0,1.1,79,123985,129340858,775365081,15.42,65105,-152.66,10,1.26,32.81,2025-12-29T09:09:51.357899338Z,158.93
96,11.14,861.8,4.84,2.89,-9.61,25,-0.02,0.01,0.01,1.1,79,124054,129340858,775365081,15.05,65170,-153.28,10,1.26,32.77,2025-12-29T09:09:55.045486792Z,158.31
96,11.13,861.5,4.83,2.92,-9.59,25,-0.02,0.01,0,1.34,73,124040,129340830,775365039,15.21,65112,-153.27,10,0.93,32.86,2025-12-29T09:09:58.738861812Z,146.86
95,11.17,861.5,4.94,2.91,-9.58,25,-0.02,0.01,0,1.34,73,124010,129340830,775365039,15.12,65097,-152.71,10,0.93,32.86,2025-12-29T09:10:02.222588223Z,145.41
95,11.11,861.5,4.93,2.9,-9.52,25,-0.02,0,0.01,1.34,77,123999,129340830,775365039,15.16,65106,-152.63,10,0.93,32.86,2025-12-29T09:10:05.918870192Z,171.09
97,11.09,860.4,4.88,2.89,-9.53,25,-0.02,0.01,0,1.34,73,124003,129340890,775364875,15.11,65117,-152.88,9,0.37,32.77,2025-12-29T09:10:09.596212005Z,145.01
96,11.13,860.4,4.98,2.93,-9.52,25,-0.02,0.01,0,1.34,73,123973,129340890,775364875,15.25,65113,-152.41,9,0.37,32.95,2025-12-29T09:10:13.485633465Z,152.76
95,11.09,860.4,4.91,2.94,-9.5,25,-0.02,0,0.01,1.34,78,124030,129340890,775364875,15.35,65132,-152.69,9,0.37,32.81,2025-12-29T09:10:17.419854006Z,174.7
97,11.07,860.2,4.91,2.95,-9.47,25,-0.02,0.01,0.01,1.1,74,123950,129340855,775364778,15.48,65099,-152.58,10,0.78,32.72,2025-12-29T09:10:21.279366147Z,161.69
95,11.14,859.8,4.92,2.97,-9.55,25,-0.01,0,0,1.1,78,123975,129340838,775364665,15.48,65112,-152.73,10,0.15,32.81,2025-12-29T09:10:24.951595681Z,-174.96
97,11.01,859.8,4.92,2.91,-9.41,25,-0.02,0.01,0.01,1.1,76,123985,129340815,775364556,15.32,65081,-152.38,10,0.04,32.81,2025-12-29T09:10:28.661209731Z,149.86
98,11.11,859.8,5.02,2.97,-9.46,25,-0.02,0.01,0,23,77,124012,4500000,3833333,15.5,65059,-152.04,117,0.04,32.86,2025-12-29T09:10:32.130006301Z,160.61
97,11.17,860.3,4.84,2.97,-9.62,25,-0.01,0,0,1.1,73,124919,129340759,775364406,15.4,69494,-153.28,10,1.22,32.95,2025-12-29T09:10:35.602867448Z,159.44
95,10.93,860.3,1.98,4.23,-9.88,25,0.34,-0.15,0.07,1.1,71,125587,129340759,775364406,22.77,70144,-168.68,10,1.22,32.91,2025-12-29T09:10:39.078981955Z,-23.75
97,10.95,859.6,1.94,4.15,-9.95,25,0.34,-0.15,0.07,1.1,73,127097,129340738,775364533,22.25,69103,-168.98,10,1.33,32.91,2025-12-29T09:10:43.003065868Z,-23.51
95,9.43,859.6,2.93,-1.96,-8.75,25,-0.59,-0.23,-0.42,1.1,74,127770,129340738,775364533,-11.99,67802,-161.46,10,1.33,32.91,2025-12-29T09:10:46.875731255Z,-158.61
