#group,false,false,false,false,false,false,false,false,false,false,false,false,false,false,false,false,false,false,false,false,false,false,false
#datatype,double,double,double,double,double,double,double,double,double,double,double,double,long,long,long,double,long,double,long,double,double,dateTime:RFC3339,double
#default,,,,,,,,,,,,,,,,,,,,,,,
,SpO2,acc_magnitude,alt,ax,ay,az,course,gx,gy,gz,hdop,heart_rate,ir,lat_scaled,lon_scaled,pitch,red,roll,sats,speed,temp,time,yaw
,98,9.87,819.5,-0.51,9.28,-3.32,67,-0.01,-0,0,1.22,72,120293,129341138,775364036,70.12,66149,171.22,10,0.41,33.47,2025-12-29T10:17:24.139741021Z,-163.19
,95,9.99,819.5,-0.43,9.4,-3.35,67,-0.02,-0.01,0,1.22,78,119959,129341138,775364036,70.24,66352,172.75,10,0.41,33.38,2025-12-29T10:17:27.417632135Z,-155.39
,95,9.64,819.5,-0.59,9.09,-3.17,67,-0.02,0.04,0,1.22,78,119710,129341138,775364036,70.44,66284,169.4,10,0.41,33.57,2025-12-29T10:17:30.517315586Z,114.66
,98,10.06,819.5,-0.33,9.49,-3.3,67,-0.01,-0.03,0,1.22,77,119618,129341138,775364036,70.73,66176,174.24,10,0.41,33.61,2025-12-29T10:17:33.577312453Z,-109.72
,95,10.22,819.5,-0.35,9.62,-3.45,67,-0.01,-0.03,0,1.22,71,119707,129341220,775364303,70.18,66160,174.25,10,0.37,33.42,2025-12-29T10:17:36.636333027Z,-112.12
,98,10.22,831.3,-0.42,9.56,-3.59,67,-0.03,-0,0.01,1.24,76,119514,129341233,775364336,69.28,65539,173.27,11,0.09,33.47,2025-12-29T10:17:39.902960403Z,-178.73
,95,9.98,831.9,-2.17,8.93,-3.9,67,0.09,-0.08,-0.08,1.09,79,119663,129341246,775364343,63.44,65754,150.95,12,0.17,33.57,2025-12-29T10:17:42.986363037Z,-42.23
,98,9.47,832.5,-2.86,8.23,-3.7,67,-0.05,0.09,0.05,1.09,79,118482,129341273,775364333,60.42,63412,142.26,12,0.17,33.47,2025-12-29T10:17:46.063236314Z,120.27
,96,9.55,832.5,-0.5,9.53,-0.36,67,-0.22,-0.08,0.26,1.09,78,117993,129341273,775364333,86.3,62809,125.98,12,0.17,33.57,2025-12-29T10:17:49.134129124Z,-160.61
,96,9.78,832.5,-0.35,9.42,-2.62,67,-0.06,0.01,-0.02,1.09,79,118731,129341273,775364333,74.35,63092,172.39,12,0.17,33.57,2025-12-29T10:17:52.206672066Z,168.53
,98,10.11,832.5,-1.24,9.16,-4.11,67,-0.75,-0.22,-0.21,1.09,71,120641,129341273,775364333,64.88,63633,163.27,12,0.17,33.47,2025-12-29T10:17:55.477187392Z,-163.36
,95,9.61,832.5,-0.61,9.31,-2.27,67,-0.49,-0.41,0.26,1.09,78,122718,129341273,775364333,75.83,66361,165.07,12,0.17,33.47,2025-12-29T10:17:58.544882802Z,-140.27
,98,14.09,832.5,-10.79,9.04,-0.57,67,-2.82,-1.71,0.53,1.09,79,122103,129341221,775364500,39.9,66087,93.01,12,0.91,33.47,2025-12-29T10:18:01.633317117Z,-148.7
,95,9.51,832.5,-5.04,7.59,-2.71,67,1.89,0.92,1.6,1.09,71,121594,129341275,775364340,52.97,65079,118.23,12,1.39,33.52,2025-12-29T10:18:04.70351392Z,25.87
,97,9.75,835.4,-0.4,9.46,-2.32,67,0.11,0.2,-0.23,1.09,70,122058,129341290,775364261,76.02,66157,170.29,12,1.65,33.52,2025-12-29T10:18:07.975299371Z,62.39
,95,9.98,835.7,-0.68,9.31,-3.54,67,-0.69,-0.04,-0.1,1.09,71,121662,129341323,775364305,68.84,65236,169.04,12,1.06,33.52,2025-12-29T10:18:11.338943535Z,-176.93
,98,9.86,835.7,-0.61,9.41,-2.87,67,-0.29,-0.14,-0.29,1.09,74,122512,129341323,775364305,72.66,66169,168,12,1.06,33.61,2025-12-29T10:18:14.341723082Z,-154.48
,96,10.07,835.7,0.16,9.45,-3.48,67,-0.25,0.23,-0.09,1.09,79,121005,129341323,775364305,69.78,64728,-177.4,12,1.06,33.57,2025-12-29T10:18:17.399576811Z,137.22
,96,9.71,835.7,-0.69,9.31,-2.66,67,0.03,0.03,-0.06,1.09,78,122074,129341323,775364305,73.55,65872,165.42,12,1.06,33.57,2025-12-29T10:18:20.941518545Z,45.4
,98,9.46,837.4,0.74,8.44,-4.2,67,-0.35,0.33,0.66,1.09,70,122446,129341135,775364461,63.2,65322,-169.95,12,0.78,33.47,2025-12-29T10:18:24.361603681Z,136.22
,98,9.83,837.4,-0.39,9.39,-2.9,67,0.06,-0.13,-0.12,1.09,76,121998,129341135,775364461,72.69,64976,172.38,12,0.78,33.52,2025-12-29T10:18:27.641360266Z,-64.21
,95,9.55,838.2,-0.26,9.21,-2.54,67,-0.53,0.65,-0.16,1.09,74,121956,129341190,775364348,74.5,65564,174.19,12,1.41,33.57,2025-12-29T10:18:30.714533686Z,129.24
,95,9.79,838.3,-0.41,9.61,-1.84,67,0.13,0.01,0.04,1.38,74,122569,129341236,775364348,78.88,66043,167.41,10,1.06,33.57,2025-12-29T10:18:33.780180908Z,6.09
,95,9.96,839,-0.99,8.62,-4.87,67,-0.64,-1.23,-0.15,1.22,79,122961,129341196,775364350,60.03,65419,168.56,11,0.52,33.57,2025-12-29T10:18:36.862062212Z,-117.44
,97,10.13,839.3,0.17,10.08,-0.94,67,-1.94,0.42,-0.23,1.18,73,122722,129341150,775364385,84.57,65471,-169.5,12,0.46,33.57,2025-12-29T10:18:40.392822244Z,167.65
,97,9.65,839.4,-2.44,9.32,-0.52,67,-0.51,0.2,-0.08,1.18,72,122438,129341131,775364336,74.98,64417,102.11,11,0.46,33.52,2025-12-29T10:18:44.228193128Z,159.17
,98,10.24,839.4,-1.48,10.05,-1.3,67,0.56,0.13,0.04,1.18,73,122639,129341000,775364111,78.91,67102,131.15,11,0.43,33.61,2025-12-29T10:18:47.303155488Z,13.58
,97,11.75,839.4,-5.76,10.08,-1.81,67,0.8,-0.58,0.09,1.18,74,122810,129341000,775364111,59.11,65727,107.41,11,0.43,33.61,2025-12-29T10:18:50.78235449Z,-35.91
,96,9.73,839.4,-0.86,9.55,-1.65,67,-0.4,-0.45,-0.09,1.18,74,121881,129341000,775364111,78.98,64758,152.48,11,0.43,33.52,2025-12-29T10:18:54.067954883Z,-131.55
,95,9.17,839.8,-0.9,8.62,-2.97,67,-1.3,0.13,0.11,1.09,75,122710,129340810,775364141,70.21,65914,163.23,12,0.67,33.42,2025-12-29T10:18:57.221434457Z,174.34
,97,9.43,839.8,-0.94,9.36,-0.75,67,-0.23,0.04,-0.17,1.09,72,123108,129340810,775364141,82.66,65635,128.46,12,0.67,33.57,2025-12-29T10:19:00.230157656Z,171.18
,98,9.58,839.8,-1,9.49,-0.84,67,0.13,0.05,0.19,1.09,74,121866,129340810,775364141,82.16,66607,130.02,12,0.67,33.52,2025-12-29T10:19:03.266026142Z,20.57
,97,11.79,839.8,-0.51,11.65,-1.73,67,4.23,0.63,0.26,1.09,72,121349,129340810,775364141,81.2,65181,163.42,12,0.67,33.57,2025-12-29T10:19:06.336229864Z,8.42
,97,9.91,839.8,-0.28,9.42,-3.07,67,-0.43,-0.13,0.13,1.09,70,121629,129340810,775364141,71.86,65693,174.75,12,0.67,33.57,2025-12-29T10:19:09.40769213Z,-162.78
,97,10.5,839.8,-0.59,9.78,-3.79,67,-0.28,-0.6,-0.2,1.09,79,123366,129340810,775364141,68.59,65591,171.09,12,0.67,33.47,2025-12-29T10:19:12.487132782Z,-115.21
,95,9.47,839.8,-2.53,8.85,-2.21,67,-0.04,0.07,-0.05,1.09,78,120682,129340810,775364141,69.2,64851,131.19,12,0.67,33.52,2025-12-29T10:19:15.545854129Z,119.33
,98,9.84,839.8,-1.3,8.79,-4.23,32,-0.91,-0.11,-0.1,1.09,75,119915,129340781,775363931,63.28,63944,162.92,12,0.93,33.57,2025-12-29T10:19:18.632812077Z,-172.97
,98,9.89,843.9,-0.48,9.52,-2.63,32,0.09,0.02,0.03,1.18,71,119770,129340843,775363923,74.31,64314,169.74,11,0.48,33.52,2025-12-29T10:19:21.797386602Z,11.73
,97,9.84,843.5,-1.28,9.04,-3.67,32,-0.13,-0.35,0.16,1.09,73,119400,129340836,775363931,66.76,63556,160.82,12,1.09,33.52,2025-12-29T10:19:25.106778923Z,-110.42
,98,9.81,843.3,0.16,9.48,-2.52,32,-0.02,-0,0.01,1.09,70,118381,129340896,775363918,75.08,63290,-176.36,12,0.89,33.52,2025-12-29T10:19:28.484106739Z,-176.61
,98,9.86,843.3,0.29,9.55,-2.45,32,-0.02,0.01,0,1.09,72,117975,129340896,775363918,75.51,63159,-173.25,12,0.89,33.57,2025-12-29T10:19:31.531335057Z,150.04
,98,9.82,843.3,0.34,9.51,-2.41,32,-0.02,0,-0,1.09,70,117498,129340858,775363856,75.66,62685,-171.9,12,0.02,33.47,2025-12-29T10:19:34.604129736Z,175.67
,96,9.69,843.3,-0.65,9.42,-2.2,32,-0.23,-0.31,-0.17,1.09,74,120264,129340858,775363855,76.32,63727,163.55,12,0.26,33.57,2025-12-29T10:19:37.676510524Z,-126.6
,96,6.95,846.2,-2.49,5.88,-2.74,32,0.26,1.44,0.58,1.27,73,119648,129340865,775364001,57.84,63799,137.73,10,1.65,33.61,2025-12-29T10:19:40.750806661Z,79.6
,96,9.79,845.8,-1.18,9.32,-2.76,32,0.01,0.01,0,1.3,74,120896,129340781,775364286,72.16,63497,156.92,9,2.91,33.57,2025-12-29T10:19:43.812551539Z,48.54
,97,9.68,844.7,-0.31,9.62,-1.07,32,0.08,0.02,0.15,1.11,78,120141,129340808,775364480,83.37,63366,163.7,11,0.96,33.66,2025-12-29T10:19:46.889689372Z,12.13
,98,9.8,845,-0.88,9.67,-1.28,167.63,-0.62,-0.16,0.12,1.09,76,121036,129340843,775364325,80.87,65185,145.6,12,1.31,33.61,2025-12-29T10:19:49.956355362Z,-165.33
,98,10.64,845.5,0.85,10.46,-1.78,167.63,0.15,0.39,-0.18,1.09,78,120642,129340843,775364325,79.32,64813,-154.55,12,1.31,33.52,2025-12-29T10:19:53.037192662Z,69.13
,96,9.33,844.4,-1.65,9.05,1.54,167.63,-0.16,-0.06,-0.05,1.22,78,120412,129340886,775364526,75.99,64027,47.02,10,1.31,33.57,2025-12-29T10:19:56.098351281Z,-159.36
,97,9.11,844.4,-1.8,8.77,1.65,167.63,-0.06,0.99,0.32,1.22,76,120416,129340886,775364526,74.45,64863,47.34,10,1.31,33.52,2025-12-29T10:19:59.1753098Z,93.38
,98,9.69,844.4,0.8,9.5,-1.73,167.63,0.03,0.08,-0.07,1.22,77,119630,129340886,775364526,78.67,63559,-155.17,10,1.31,33.57,2025-12-29T10:20:02.244703628Z,70.46
,98,9.6,844.4,0.2,9.54,-1,167.63,0.13,0.03,0.04,1.22,70,120601,129340886,775364526,83.9,66246,-168.77,10,1.31,33.52,2025-12-29T10:20:05.337827698Z,11.69
,96,8.22,844.4,-0.26,8.04,-1.7,167.63,3.1,1.82,1.27,1.22,76,120581,129340886,775364526,77.9,64485,171.37,10,1.31,33.71,2025-12-29T10:20:08.389651322Z,30.4
,97,10.21,844.4,-0.38,10.18,-0.75,167.63,-1.15,0.23,-0.05,1.22,73,122713,129340886,775364526,85.27,65796,153.14,10,1.31,33.57,2025-12-29T10:20:11.893046048Z,168.86
,95,15.61,844.4,-3.86,15.12,0.35,344.55,-0.96,1.95,-0.83,1.22,79,122794,129341378,775363603,75.63,65257,84.75,10,8,33.57,2025-12-29T10:20:14.949222745Z,116.38
,95,8.05,843.4,2.16,6.5,-4.23,344.55,-1.36,0.99,-0.45,1.09,73,121803,129341378,775363603,53.85,65613,-152.88,12,8,33.57,2025-12-29T10:20:18.020369454Z,143.81
,95,8.53,845.3,-0.07,8.32,-1.86,344.55,1.78,0.65,0.35,1.09,79,119799,129341513,775363698,77.37,64362,177.72,12,8,33.52,2025-12-29T10:20:21.09216144Z,20.03
,97,9.85,845.3,-0.32,9.31,-3.18,344.55,0.18,-0.08,0.07,1.09,72,121010,129341513,775363698,71.05,66535,174.2,12,8,33.52,2025-12-29T10:20:24.191597569Z,-23
,98,10.17,845.3,0.51,9.28,-4.13,344.55,-0.22,0.5,-0.21,1.09,75,121652,129341513,775363698,65.88,65348,-172.92,12,8,33.52,2025-12-29T10:20:27.450476352Z,113.86
,96,15.68,845.3,-2.82,13.67,7.13,344.55,3.23,1.26,-0.16,1.09,76,121118,129341513,775363698,60.71,64718,21.59,12,8,33.57,2025-12-29T10:20:30.555616806Z,21.29
,96,8.29,845.3,-5.49,6.19,0.45,344.55,-1.34,-0.26,-0.37,1.09,73,122803,129341513,775363698,48.35,65711,85.36,12,8,33.61,2025-12-29T10:20:33.591465301Z,-168.89
,97,10.46,845.3,-0.59,10.29,1.75,344.55,-0.71,1.39,0.05,1.09,73,123987,129341521,775363760,79.8,67605,18.62,12,6.37,33.57,2025-12-29T10:20:36.651181745Z,117.14
,95,7.42,850.5,0.27,1.07,-7.34,344.55,-0.69,1.99,2.2,1.18,78,121712,129341508,775363733,8.29,65343,-177.91,11,2.65,33.57,2025-12-29T10:20:39.7367992Z,109.22
,96,9.58,853.2,-1.02,9.31,-2.03,344.55,-1.06,-0.09,-0.02,1.75,78,122473,129341501,775363770,76.29,64353,153.25,10,1.94,33.61,2025-12-29T10:20:42.81458293Z,-175.19
,96,9.24,854.4,3.29,0.45,-8.62,355.34,1.17,3.02,1.21,1.57,78,121983,129341613,775363901,2.76,65719,-159.12,10,6.32,33.57,2025-12-29T10:20:45.873559485Z,68.76
,98,25.8,856.9,1.27,19.61,-16.71,355.34,-2.47,-3.23,-0.61,1.18,74,120249,129341613,775364066,49.49,62387,-175.64,11,2.3,33.42,2025-12-29T10:20:49.155915244Z,-127.49
,98,12.29,861.4,-1.6,12.13,1.2,355.34,-1.51,-0.24,-0.74,1.08,78,122325,129341423,775364233,80.65,65452,53.19,12,2.3,33.42,2025-12-29T10:20:52.437734633Z,-170.9
,97,15.55,861.4,2.8,14.76,4.04,355.34,-4.07,4.37,0.21,1.08,79,122398,129341423,775364233,71.58,64766,-34.74,12,2.3,33.42,2025-12-29T10:20:55.496264512Z,133.02
,95,19,861.4,1.64,18.71,-2.84,355.34,-2.8,-0.1,-0.74,1.08,74,121388,129341423,775364233,80.07,63369,-150.06,12,2.3,33.47,2025-12-29T10:20:58.5816881Z,-177.96
,96,15.82,861.4,-2.85,13.68,7.4,355.34,4.04,1.39,2.21,1.08,79,122220,129341431,775364121,59.89,64322,21.08,12,2.39,33.47,2025-12-29T10:21:01.64673352Z,18.93
,96,8.5,843.5,-2.12,8.17,-1.02,355.34,-0.98,-0.33,-0.06,1.19,71,122291,129341646,775363986,73.92,64696,115.6,12,1.02,33.47,2025-12-29T10:21:04.920190698Z,-161.71
,96,11.71,834.4,4.02,10.6,-2.95,94.05,-0.97,-0.47,-0.32,1.19,75,122402,129341673,775363981,64.83,64312,-126.28,12,5.32,33.47,2025-12-29T10:21:08.404538208Z,-153.91
,95,8.38,833.9,0.27,7.87,-2.85,94.05,-1.16,-0.7,-0.23,1.19,77,122023,129341606,775364121,70.05,65325,-174.67,12,5.32,33.47,2025-12-29T10:21:12.919576331Z,-148.88
,98,9.72,833.9,-1.94,8.38,-4.53,94.05,-1.63,-0.62,-0.12,1.19,76,122534,129341606,775364121,59.55,64728,156.79,12,5.32,33.47,2025-12-29T10:21:15.994738388Z,-159.35
,95,10.68,820.7,-4,8.27,-5.46,94.05,-0.86,0.35,-0.64,1.08,75,121303,129341700,775364253,50.71,64802,143.75,12,5.32,33.57,2025-12-29T10:21:19.069414625Z,157.6
,98,9.87,820.7,-0.67,9.18,-3.56,94.05,-0.21,-0.22,0.14,1.08,74,121253,129341700,775364253,68.44,64371,169.42,12,5.32,33.57,2025-12-29T10:21:22.124628647Z,-132.75
,98,10.01,820.7,-0.51,9.1,-4.12,94.05,-0.68,-0.13,-0.22,1.08,78,119537,129341700,775364253,65.47,63275,172.98,12,5.32,33.57,2025-12-29T10:21:25.192228068Z,-169.43
,97,9.78,820.7,0.9,9.56,-1.85,94.05,-0.04,0.04,-0,1.08,73,118739,129341700,775364253,77.88,62806,-154,12,5.32,33.47,2025-12-29T10:21:28.275732405Z,136.57
,98,9.67,820.7,-0.84,9.33,-2.41,94.05,-0.5,-0.34,0.04,1.08,78,122246,129341700,775364253,74.71,66096,160.7,12,5.32,33.57,2025-12-29T10:21:31.758141626Z,-146.2
,96,8.98,820.7,-0.09,8.81,-1.73,94.05,4.32,0.32,1.54,1.08,70,122079,129341700,775364253,78.89,64378,177.07,12,5.32,33.57,2025-12-29T10:21:34.821514436Z,4.28
,97,29.09,830,19.61,8.77,-19.61,96.55,-1.08,-1.96,-1.16,1.08,70,122654,129341741,775365081,17.55,65043,-135,12,5.3,33.57,2025-12-29T10:21:37.947229996Z,-118.85
,98,22.51,832.4,-4.09,19.61,10.27,89.33,4.37,0.12,2.01,1.08,73,123092,129341826,775365336,60.59,66608,21.73,12,3.06,33.57,2025-12-29T10:21:40.959991363Z,1.52
,98,10.24,832.4,-4.41,8.47,-3.71,89.33,4.37,1.92,1.99,1.08,78,122911,129341826,775365336,55.76,66032,130.05,12,3.06,33.52,2025-12-29T10:21:44.024921766Z,23.7
,95,6.96,832.9,-3.91,-0.15,-5.75,89.33,1.78,0.29,0.9,1.08,74,122722,129341760,775365733,-1.2,65546,145.77,12,3.06,33.52,2025-12-29T10:21:47.095185554Z,9.28
,96,10.89,832.9,-6.34,8.44,2.67,89.33,-2.42,3.31,-0.37,1.08,78,121982,129341760,775365733,50.83,64935,67.18,12,3.06,33.47,2025-12-29T10:21:50.44064396Z,126.15
,97,20.48,832.9,2.08,19.61,-5.53,89.33,-3.18,-0.65,-1.39,1.08,77,122915,129341760,775365733,73.23,65719,-159.36,12,3.06,33.52,2025-12-29T10:21:53.450631042Z,-168.43
,98,15.1,832.9,-2.86,14.38,-3.59,89.33,-2.43,1.65,-0.93,1.08,71,121392,129341760,775365733,72.3,64244,141.5,12,3.06,33.42,2025-12-29T10:21:56.533149514Z,145.82
,98,15.77,832.9,1.76,15.33,-3.28,89.33,-2.98,0.03,-0.87,1.08,70,120959,129341233,775366763,76.37,63170,-151.78,12,2.65,33.47,2025-12-29T10:21:59.61416789Z,179.48
,96,12.76,832.9,1.12,12.71,-0.13,89.33,-2.62,0.43,-0.61,1.08,70,120574,129341110,775367090,84.94,62752,-96.84,12,2.17,33.57,2025-12-29T10:22:02.677425577Z,170.63
,97,9.46,834.2,-0.87,9.4,-0.58,89.33,-1.36,-0.34,-0.14,1.08,72,120822,129341155,775367323,83.64,63526,123.44,12,1.28,33.52,2025-12-29T10:22:05.750493861Z,-166
,97,9.44,835.8,-0.62,9.2,-2.02,89.33,-0.89,-0.34,-0.11,1.08,73,121132,129341161,775367390,77.05,64523,162.96,12,0.07,33.47,2025-12-29T10:22:08.825167079Z,-159.03
,98,11.48,833.9,-2.78,10.91,-2.26,108.33,-0.97,-0.4,-0.42,1.12,74,121549,129341085,775367743,71.82,65230,129.17,11,2.82,33.47,2025-12-29T10:22:11.883597094Z,-157.55
,98,10.14,833.2,2.09,9.89,0.78,93.89,-1.7,-0.11,-0.75,1.08,78,121234,129340978,775368741,77.27,64778,-69.68,12,5.91,33.47,2025-12-29T10:22:14.978983836Z,-176.3
,96,14.88,833.9,-4.9,14.04,0.53,93.89,-2.21,2.4,-0.27,1.08,73,121351,129340978,775368741,70.66,64052,83.84,12,5.91,33.42,2025-12-29T10:22:18.038663942Z,132.6
,95,22.72,834.8,-6.04,13.13,17.52,93.89,3.29,2.34,0.89,1.08,73,122305,129340918,775368966,35.32,66194,19.03,12,5.91,33.42,2025-12-29T10:22:21.096095157Z,35.37
,95,6.59,834.8,-1.02,1.89,-6.23,93.89,2.69,-1.34,0.64,1.08,73,122447,129340918,775368966,16.63,66054,170.67,12,5.91,33.47,2025-12-29T10:22:24.197980968Z,-26.45
,98,6.51,834.8,-0.83,-0.65,-6.42,93.89,2.15,-0.49,1,1.08,79,122539,129340918,775368966,-5.72,66949,172.61,12,5.91,33.52,2025-12-29T10:22:27.249158771Z,-12.8
,97,10.22,834.8,0.12,6.41,-7.95,93.89,0.44,0.65,0.02,1.08,75,122329,129340918,775368966,38.89,66118,-179.14,12,5.91,33.42,2025-12-29T10:22:30.524785104Z,56.4
,98,18.59,834.8,-0.44,17.29,-6.81,93.89,-3.48,-2.6,-0.7,1.08,70,121949,129340918,775368966,68.45,65652,176.3,12,5.91,33.52,2025-12-29T10:22:33.601125479Z,-143.27
,96,13.27,834.8,1.05,12.4,-4.6,115.74,-0.62,1.27,-0.31,1.08,70,122102,129340815,775370328,69.17,65195,-167.16,12,5.26,33.42,2025-12-29T10:22:36.66447076Z,116.15
,97,19.86,834.9,-12.98,14.92,-1.86,115.74,-3.72,-0.59,-0.41,1.08,71,120525,129340598,775370898,48.68,63242,98.14,12,2.65,33.52,2025-12-29T10:22:40.188585793Z,-171.07
,96,13.5,836.3,1.72,13.16,-2.44,115.74,-2.23,-0.5,-0.13,1.08,73,122576,129340571,775371143,77.2,66646,-144.81,12,2.44,33.61,2025-12-29T10:22:43.221634699Z,-167.35
,95,12.9,836.3,5.11,4.54,-10.93,115.74,0.85,-1.09,-0.04,1.08,78,120316,129340571,775371143,20.62,63070,-154.93,12,2.44,33.47,2025-12-29T10:22:46.505073708Z,-51.77
,98,10.97,836.3,-1.34,10.67,-2.18,115.74,-1.2,-0.71,-0.21,1.08,79,120000,129340571,775371143,76.53,62656,148.48,12,2.44,33.42,2025-12-29T10:22:49.574615167Z,-149.3
,95,11.13,836.3,-0.46,10.88,-2.3,115.74,-1.51,-0.25,-0.26,1.08,74,120609,129340538,775372811,77.86,63660,168.74,12,1.48,33.47,2025-12-29T10:22:52.643181591Z,-170.77
,96,10.02,841.9,-0.77,9.86,-1.64,115.74,-0.7,-0.03,-0.14,1.08,73,121160,129340550,775372919,79.59,63577,154.72,12,0.41,33.47,2025-12-29T10:22:55.709268225Z,-177.73
,97,22.88,839.3,-6.74,10,19.44,115.74,1.29,-0.47,0.2,1.08,71,122372,129340498,775373056,25.91,66714,19.12,12,3.07,33.47,2025-12-29T10:22:58.792329288Z,-19.85
,95,13.64,840.8,2.49,9.43,-9.53,115.74,0.24,-0.29,0.07,1.08,77,120226,129340525,775373431,43.74,62599,-165.39,12,0.33,33.47,2025-12-29T10:23:02.063555178Z,-50.49
,97,10.68,841.6,0.68,10.62,-0.9,115.74,-1.07,-0.41,-0.08,1.08,77,120263,129340528,775373653,83.95,62685,-143.03,12,3.04,33.47,2025-12-29T10:23:05.133103883Z,-159.24
,95,10.21,841.6,-1.11,10.07,-1.34,115.74,-0.88,-0.37,-0.2,1.08,71,120468,129340528,775373653,80.2,63439,140.37,12,3.04,33.57,2025-12-29T10:23:08.205070418Z,-157.03
,95,10.16,841.6,-0.74,10.04,-1.35,115.74,-0.7,-0.4,-0.1,1.08,74,121127,129340528,775373653,81.3,63768,151.24,12,3.04,33.47,2025-12-29T10:23:11.27384438Z,-150.33
,96,23.79,841.6,-9.17,9.85,19.61,115.74,0.74,-0.09,0.15,1.08,79,122050,129340528,775373653,24.48,66425,25.05,12,3.04,33.57,2025-12-29T10:23:14.363484313Z,-6.67
,97,10.86,841.6,5.41,9.25,-1.78,115.74,-0.86,1.49,-0.49,1.08,72,120399,129340528,775373653,58.36,63064,-108.22,12,3.04,33.52,2025-12-29T10:23:17.634058276Z,120.18
,95,9.68,841.6,-0.25,9.57,-1.39,115.74,-0.87,-0.45,-0.12,1.08,70,120940,129340528,775373653,81.6,64712,169.95,12,3.04,33.47,2025-12-29T10:23:20.742153663Z,-152.74
,97,10.55,844.8,-2.13,10.03,-2.48,115.74,-0.7,-0.27,-0.28,1.37,70,122138,129340395,775375625,71.93,65862,139.33,11,1.56,33.57,2025-12-29T10:23:23.783989734Z,-159.05
,97,11.9,845.5,-3.58,10.59,-4.08,115.74,3.34,1.02,1.39,1.08,73,120189,129340416,775376011,62.87,62661,138.74,12,3.2,33.47,2025-12-29T10:23:26.853575499Z,16.95
,97,12.56,850.6,1.09,12.48,-0.96,115.74,-1.73,-0.05,-0.14,1.08,78,120437,129340480,775376239,83.36,62995,-131.52,12,0.78,33.42,2025-12-29T10:23:29.928637873Z,-178.48
,96,9.88,847.8,-1.29,9.63,-1.8,250.71,-0.71,-0.24,-0,1.3,79,121678,129340586,775376258,77.09,64828,144.4,12,5.59,33.47,2025-12-29T10:23:33.208127202Z,-161.57
,98,28.47,843.5,17.98,19.61,-10.13,250.71,-2.58,-0.96,-0.81,1.37,76,120842,129340590,775376880,43.54,63527,-119.41,11,5.59,33.47,2025-12-29T10:23:36.259844375Z,-159.55
,97,9.32,843.5,-0.14,8.5,-3.81,250.71,3.46,0.59,0.85,1.37,79,122041,129340590,775376880,65.86,66038,177.88,11,5.59,33.47,2025-12-29T10:23:39.364920436Z,9.62
,96,9.52,843.5,-0.08,8.76,-3.74,250.71,3.56,0.55,0.83,1.37,79,121217,129340590,775376880,66.89,64156,178.79,11,5.59,33.47,2025-12-29T10:23:42.41360507Z,8.79
,98,16.73,843.5,-1.41,16.36,-3.17,250.71,-2.87,-0.4,-0.59,1.37,72,120037,129340590,775376880,78.04,62418,156,11,5.59,33.42,2025-12-29T10:23:45.480599006Z,-172
,95,10.09,843.5,-0.93,9.91,-1.64,250.71,-0.83,-0.42,-0.1,1.37,79,120660,129340590,775376880,79.24,64190,150.44,11,5.59,33.52,2025-12-29T10:23:48.557524186Z,-153.05
,98,9.35,843.5,0.09,9.13,-2,250.71,-1.08,-1.18,-0.34,1.37,70,121802,129340543,775378980,77.64,65396,-177.33,11,2.06,33.52,2025-12-29T10:23:51.646940549Z,-132.52
,96,12.94,843.5,-0.31,12.93,-0.1,89.25,4.37,-0.06,0.75,1.37,78,120940,129340546,775379496,88.57,63709,107.76,11,9.5,33.38,2025-12-29T10:23:54.708193686Z,-0.79
,96,18.06,843.4,3.38,15.37,-8.85,89.25,-2.72,-0.22,-0.51,1.19,71,120497,129340793,775379773,58.35,63035,-159.12,12,2,33.42,2025-12-29T10:23:57.765427669Z,-175.37
,97,9.36,846.2,-1.3,9.13,-1.62,91.26,-0.52,0.07,0.01,1.71,77,121856,129340868,775380023,77.16,64378,141.17,11,3.94,33.47,2025-12-29T10:24:00.855481645Z,171.88
,96,25.84,845.3,15.98,19.61,-5.28,92.66,-1.6,-0.44,-1.57,1.71,74,122392,129340661,775380556,49.37,66303,-108.29,11,8.65,33.52,2025-12-29T10:24:04.118190232Z,-164.56
,96,11.53,844.7,5.69,3.58,-9.37,92.66,0.86,-1.06,0.29,1.71,74,122526,129340418,775380758,18.08,66144,-148.75,11,0.98,33.38,2025-12-29T10:24:07.193174336Z,-51.03
,97,15.83,844.7,-2.51,14.27,-6.38,92.66,-2.25,2.11,-0.28,1.71,75,120130,129340418,775380758,64.36,62948,158.54,11,0.98,33.42,2025-12-29T10:24:10.324851665Z,136.91
,98,9.88,844.7,-1.03,9.52,-2.42,92.66,-1.06,-0.19,-0.14,1.71,76,120513,129340418,775380758,74.56,63720,156.84,11,0.98,33.47,2025-12-29T10:24:13.526903988Z,-169.89
,95,10.15,844.7,0.23,10.07,-1.26,92.66,-0.59,0.31,-0.19,1.71,71,120376,129340418,775380758,82.75,63144,-169.55,11,0.98,33.38,2025-12-29T10:24:16.825241877Z,152.32
,97,9.89,844.7,-0.64,9.8,-1.18,92.66,-0.77,0.04,-0.07,1.71,74,120258,129340611,775382121,82.2,62617,151.47,11,0.89,33.52,2025-12-29T10:24:19.883284716Z,176.99
,97,9.9,850.9,-1.14,9.56,-2.31,358.49,-0.62,-0.3,-0.05,1.18,79,122033,129340968,775381675,74.94,64436,153.77,11,1.69,33.42,2025-12-29T10:24:22.967398569Z,-154.28
,95,29.15,847.2,12.95,17.25,-19.61,358.49,1,-4.17,-1.8,1.71,77,122620,129340968,775381675,36.28,66095,-146.57,12,1.69,33.42,2025-12-29T10:24:26.026801221Z,-76.57
,98,5.47,848,-1.97,2.34,-4.53,358.49,2.16,0.02,1.18,1.71,76,121851,129341095,775381623,25.36,65068,156.49,12,1.69,33.42,2025-12-29T10:24:29.099570581Z,0.57
,96,23.81,848,5.55,19.61,-12.3,358.49,-2.66,-2.14,-0.97,1.71,72,120118,129341095,775381623,55.47,62600,-155.69,12,1.69,33.42,2025-12-29T10:24:32.178725404Z,-141.19
,97,11.82,848,0.59,11.71,-1.51,358.49,-1.57,-0.23,-0.23,1.71,79,119959,129341095,775381623,82.1,62529,-158.65,12,1.69,33.42,2025-12-29T10:24:35.248838747Z,-171.62
,95,9.58,848,-0.64,9.48,-1.25,358.49,-1.28,-0.41,-0.23,1.71,70,120156,129341095,775381623,81.54,62840,152.83,12,1.69,33.47,2025-12-29T10:24:38.330772493Z,-162.08
,98,8.97,848,-0.88,8.67,-2.12,358.49,-0.82,-0.37,-0.14,1.71,75,121065,129341095,775381623,75.16,64737,157.5,12,1.69,33.47,2025-12-29T10:24:41.392854274Z,-155.55
,96,13.23,848,5.96,11.36,-3.25,358.49,-1.57,-0.83,-0.71,1.71,70,120891,129341095,775381623,59.14,64436,-118.6,12,1.69,33.38,2025-12-29T10:24:44.460720774Z,-152.19
,95,30.6,848,19.61,12.91,-19.61,358.49,-0.02,-3.5,-0.87,1.71,79,121940,129341095,775381623,24.96,66364,-135,12,1.69,33.38,2025-12-29T10:24:47.544074371Z,-90.29
,96,15.62,848,-1.23,15.51,-1.43,16.12,4.37,1.05,1.71,1.71,72,121791,129342244,775380348,83.06,66132,139.42,12,3.43,33.52,2025-12-29T10:24:51.049241843Z,13.57
,96,4.71,848,-0.28,3.95,-2.55,312.47,3.73,0.03,1.03,1.71,74,120520,129342430,775380071,56.95,64300,173.84,12,5.28,33.38,2025-12-29T10:24:54.318277257Z,0.42
,96,19.99,848,3.84,19.61,-0.4,312.47,-1.35,1.91,-1.86,1.71,78,120687,129342430,775380071,78.88,64178,-95.95,12,5.28,33.42,2025-12-29T10:24:57.368491086Z,125.16
,98,10.31,848,-0.13,10.21,-1.41,312.47,-0.66,-0.4,-0.17,1.71,75,120723,129342430,775380071,82.13,64706,174.65,12,5.28,33.38,2025-12-29T10:25:00.494686111Z,-148.41
,97,10.99,848,-1.74,10.66,-2.07,312.47,-0.83,-0.43,-0.39,1.71,75,120226,129342430,775380071,75.79,65022,139.97,12,5.28,33.38,2025-12-29T10:25:03.514637318Z,-152.62
,97,20.19,848,4.19,19.61,-2.37,312.47,-1.77,1.15,-2.14,1.71,74,121078,129342430,775380071,76.22,64344,-119.49,12,5.28,33.47,2025-12-29T10:25:06.596351779Z,147.08
,95,16.64,848,-9.48,13.67,0.56,322.06,-1.33,-1.19,-1.28,1.71,76,120957,129343195,775378581,55.2,63798,86.62,12,6.78,33.38,2025-12-29T10:25:09.677583784Z,-138.08
,97,25.47,848,-11.26,13.56,18.39,325.55,3.04,1.04,0.71,1.71,75,121770,129343489,775378320,32.17,66178,31.5,12,6.59,33.47,2025-12-29T10:25:12.72043863Z,18.97
,96,19.61,846.6,-0.86,19.59,0.2,298.07,4.37,1.85,1.36,1.29,78,121955,129343813,775377521,87.41,66444,76.9,12,11.5,33.42,2025-12-29T10:25:15.800394592Z,22.95
,96,15.57,847.4,0.46,15.51,-1.3,274.87,4.37,0.74,1.02,1.19,79,121616,129344020,775376991,84.93,65956,-160.49,12,5.43,33.42,2025-12-29T10:25:18.742485813Z,9.56
,96,8.64,847.1,2.42,8.14,-1.55,280.4,4.37,1.41,1.51,1.19,71,120779,129344150,775376608,70.54,64014,-122.7,12,4.15,33.38,2025-12-29T10:25:21.744431468Z,17.9
,98,9.24,843.6,-0.83,9.18,-0.74,280.4,-0.52,0.17,0.04,1.7,77,121536,129344140,775376336,83.11,65845,131.5,12,1.5,33.42,2025-12-29T10:25:24.821176429Z,161.74
,95,11.48,840.6,-0.75,11.34,-1.61,155.09,-1.83,-0.23,-0.73,1.19,77,119298,129343955,775376278,81.11,63072,154.92,12,4.24,33.42,2025-12-29T10:25:27.897611302Z,-172.96
,96,9.4,839.3,-1.16,9.22,-1.46,106.6,-0.04,-0.37,0.19,1.7,78,121064,129343838,775376398,78.57,65252,141.36,12,2.5,33.38,2025-12-29T10:25:30.965312786Z,-95.68
,96,13.32,837.9,-1.09,13.25,0.89,106.6,4.37,0.61,0.98,1.7,74,121785,129344008,775376333,83.94,66540,50.87,11,2.5,33.42,2025-12-29T10:25:34.0215749Z,8.01
,98,11.05,836.8,-2.99,7.93,-7.09,106.6,0.02,-0.49,-0.33,1.19,76,120075,129344410,775375945,45.86,64009,157.14,11,2.5,33.38,2025-12-29T10:25:37.322729616Z,-87.32
,95,13.89,836.8,0.96,13.71,-2.02,106.6,-2.59,-0.64,-0.4,1.19,75,121651,129344410,775375945,80.72,65349,-154.61,11,2.5,33.42,2025-12-29T10:25:40.378689354Z,-166.12
,95,25.82,836.8,7.04,19.61,-15.25,106.6,-3.18,-3.77,-0.9,1.19,78,119913,129344410,775375945,49.42,62649,-155.23,11,2.5,33.38,2025-12-29T10:25:43.4808337Z,-130.18
,95,9.76,836.8,-0.53,9.69,-1.02,106.6,-1.36,-0.52,-0.22,1.19,74,120096,129344410,775375945,83.26,63997,152.36,11,2.5,33.38,2025-12-29T10:25:46.700611716Z,-158.96
,95,10.45,836.8,-1.33,10.16,-2.04,106.6,-0.94,-0.74,-0.2,1.19,79,119580,129344410,775375945,76.52,62842,147,11,2.5,33.38,2025-12-29T10:25:49.878306154Z,-142.1
,97,10.09,844.3,-1.08,10,-0.9,106.6,-1.38,-0.49,-0.21,1.76,75,121508,129345286,775375350,82,65721,129.74,12,0.63,33.38,2025-12-29T10:25:53.066856307Z,-160.45
,97,10.21,844.3,-6.73,7.13,2.85,106.6,-1.8,3.03,-0.39,1.76,77,122075,129345286,775375350,44.28,66103,67.06,12,0.63,33.38,2025-12-29T10:25:56.140977452Z,120.74
,98,19.2,844.3,-1.94,16.22,-10.08,106.6,-2.58,0.4,-0.67,1.76,73,120178,129345286,775375350,57.67,64289,169.13,12,0.63,33.38,2025-12-29T10:25:59.622426194Z,171.18
,95,15.91,844.3,2.99,15.46,-2.33,106.6,-3.05,-0.29,-0.66,1.76,74,121729,129345286,775375350,76.23,66371,-127.96,12,0.63,33.38,2025-12-29T10:26:02.703040665Z,-174.56
,96,10.38,850.9,-2.45,9.38,-3.71,106.6,4.37,1.44,1.47,1.08,79,121485,129345810,775374625,64.64,66213,146.6,12,3.13,33.38,2025-12-29T10:26:05.979094944Z,18.25
,96,5.19,850.3,2.57,2.29,-3.89,106.6,3.34,-0.11,0.88,1.23,70,121549,129345823,775374291,26.15,66057,-146.5,11,2.85,33.38,2025-12-29T10:26:09.042445479Z,-1.85
,95,9.93,851,-1.81,9.28,-3.02,106.6,4.37,1.42,0.9,1.35,72,121561,129345891,775373943,69.22,65563,149.04,12,2.85,33.33,2025-12-29T10:26:12.127106464Z,17.98
,95,3.89,851,-1.7,0.19,-3.49,106.6,2.46,1.08,0.72,1.35,73,121777,129345891,775373943,2.75,65596,153.99,12,2.85,33.38,2025-12-29T10:26:15.184236925Z,23.7
,96,17.7,851,-7.73,14.82,-5.84,106.6,-3.25,0.73,-0.4,1.35,77,120121,129345891,775373943,56.82,64423,127.07,12,2.85,33.42,2025-12-29T10:26:18.261578621Z,167.34
,98,18.42,851,2.38,17.73,-4.39,106.6,-3.29,-0.7,-0.82,1.35,73,119889,129345891,775373943,74.26,64178,-151.56,12,2.85,33.33,2025-12-29T10:26:21.32349699Z,-167.94
,95,16.55,851,2.2,16.15,-2.85,106.6,-3.15,0.1,-0.74,1.35,77,119196,129345891,775373943,77.42,61956,-142.37,12,2.85,33.33,2025-12-29T10:26:24.413667682Z,178.18
,97,11.88,851,-1.98,11.56,-1.89,106.6,-1.72,-0.91,-0.38,1.35,70,119366,129345891,775373943,76.67,62661,133.73,12,2.85,33.42,2025-12-29T10:26:27.483446607Z,-152.13
,97,9.83,851,-1.3,9.23,-3.12,106.6,-1.16,-0.75,-0.19,1.35,71,119696,129345891,775373943,69.86,63207,157.41,12,2.85,33.28,2025-12-29T10:26:30.551126767Z,-146.92
,95,9.9,851,-0.65,9.65,-2.1,106.6,-0.61,-0.86,-0.08,1.35,72,120596,129347233,775371420,77.15,64666,162.73,12,0.31,33.38,2025-12-29T10:26:33.624513898Z,-125.47
,95,11.78,851,1.57,11.65,-0.75,359.39,-1.25,-1.28,-0.16,1.35,72,120628,129347390,775371418,81.5,64015,-115.4,12,3.94,33.42,2025-12-29T10:26:36.688685882Z,-134.33
,96,27.87,857,2.68,19.61,-19.61,265.4,0.69,-1.4,-1.19,1.19,77,121346,129347478,775371035,44.73,65840,-172.22,12,9.45,33.42,2025-12-29T10:26:39.7707202Z,-63.82
,96,16.82,853.6,0.39,16.78,-1.08,265.4,4.37,0.81,0.95,1.19,75,121187,129347760,775370723,86.09,65568,-160.35,12,3.13,33.47,2025-12-29T10:26:42.853615317Z,10.49
,97,5.38,854.4,-0.87,4.38,-2.99,265.4,3.6,0.53,1.45,1.29,73,121382,129347908,775370746,54.61,65934,163.75,12,1.87,33.38,2025-12-29T10:26:45.908996926Z,8.31
,97,9.72,852.4,3.28,0.92,-9.1,265.4,1.71,-0.24,0.89,1.29,79,121396,129347921,775370426,5.46,65859,-160.16,12,0.56,33.33,2025-12-29T10:26:48.978094025Z,-7.97
,95,8.66,853.5,1.41,0.93,-8.49,265.4,2,-1.25,0.72,1.39,76,121326,129348093,775370101,6.16,66329,-170.57,10,0.56,33.42,2025-12-29T10:26:52.046142559Z,-31.89
,97,9.8,853.9,4.09,2.64,-8.5,265.4,2.17,-0.98,0.72,1.08,78,120988,129348173,775369673,15.61,65292,-154.31,12,0.56,33.52,2025-12-29T10:26:55.334648852Z,-24.22
,95,11.94,853.9,-5.73,9.39,4.64,265.4,-2.3,2.79,-0.08,1.08,72,121267,129348173,775369673,51.86,65479,50.99,12,0.56,33.28,2025-12-29T10:26:58.397223893Z,129.49
,98,8.33,853.9,-2.89,7.33,-2.71,265.4,4.31,0.85,1.21,1.08,70,121312,129348173,775369673,61.59,65766,133.17,12,0.56,33.38,2025-12-29T10:27:01.48415779Z,11.19
,95,6.42,853.9,0.95,1.12,-6.25,265.4,2.98,-0.83,0.45,1.08,76,121555,129348173,775369673,10.01,66239,-171.38,12,0.56,33.42,2025-12-29T10:27:04.556975416Z,-15.51
,97,8.5,853.9,1.77,0.33,-8.31,265.4,2.32,-1.27,1.12,1.08,77,120507,129348173,775369673,2.23,65734,-167.99,12,0.56,33.38,2025-12-29T10:27:07.618497485Z,-28.67
,95,5.71,853.9,-1.96,4.92,-2.14,267.88,3.98,0.08,0.87,1.08,79,121023,129348926,775367556,59.47,65478,137.61,12,5.91,33.33,2025-12-29T10:27:10.703024554Z,1.18
,98,3.03,852.5,0.28,1.66,-2.52,274.41,3.58,-0.45,0.86,2.01,78,120859,129348998,775367133,33.12,65346,-173.61,12,6.65,33.38,2025-12-29T10:27:13.764935682Z,-7.18
,97,7.26,855.5,1.48,-1.47,-6.96,161.51,2.16,-1.79,1.23,2.01,72,120652,129349071,775367216,-11.66,65452,-167.97,11,2.57,33.42,2025-12-29T10:27:16.830375845Z,-39.73
,96,5.99,855.3,0.25,5.92,0.89,161.51,-0.39,1.14,-0.22,1.34,78,120763,129349139,775366846,81.12,64730,-15.62,12,2.28,33.38,2025-12-29T10:27:19.901949536Z,109.03
,98,8.25,858.5,-2.2,6.29,-4.87,161.51,-0.37,1.3,0.42,1.17,74,121723,129349321,775366750,49.65,66324,155.74,12,2.22,33.33,2025-12-29T10:27:23.404554645Z,106.03
,95,19.52,853.2,-6.22,17.55,-5.84,161.51,-3.76,-0.02,-0.4,1.28,79,120969,129349340,775366483,64.09,65430,133.2,12,2.22,33.33,2025-12-29T10:27:26.485977884Z,-179.65
,98,14.97,853.2,-0.19,14.93,-1.13,161.51,4.37,1.58,1.14,1.28,73,121286,129349340,775366483,85.59,65826,170.3,12,2.22,33.33,2025-12-29T10:27:29.532045082Z,19.89
,95,4.6,853.2,-1.16,2.86,-3.41,161.51,3.08,0.05,1.05,1.28,73,121024,129349340,775366483,38.48,64890,161.28,12,2.22,33.42,2025-12-29T10:27:32.615714676Z,0.98
,98,26.55,853.2,9.07,19.61,-15.43,159.3,-2.98,-4.18,-0.73,1.28,70,119053,129348655,775366458,47.62,62315,-149.55,12,2.26,33.38,2025-12-29T10:27:35.668712597Z,-125.44
,98,12.04,855.5,-0.71,11.91,-1.6,159.3,-1.91,-0.5,-0.45,1.08,73,118960,129348590,775366413,81.63,62469,156.24,12,2.76,33.47,2025-12-29T10:27:38.744223513Z,-165.29
,98,9.51,854.9,-1.11,9.31,-1.62,159.3,-1.04,-0.2,-0.21,1.08,75,119543,129348508,775366351,78.1,63694,145.69,12,1.09,33.38,2025-12-29T10:27:41.815176576Z,-169
,96,9.23,852,-1.1,8.84,-2.43,159.3,-0.73,-0.74,0.09,1.08,74,119934,129348221,775366341,73.25,64643,155.67,12,4.09,33.47,2025-12-29T10:27:44.89817613Z,-134.64
,95,10.78,847.7,0.43,10.75,-0.69,149.6,-0.71,0.56,-0.41,1.08,74,120657,129347690,775366413,85.7,64552,-148.19,12,10.63,33.42,2025-12-29T10:27:47.97873753Z,141.85
,98,23.05,843,-19.61,11.22,4.57,149.6,-2.18,-1.93,-1.69,1.28,76,119003,129347690,775366413,29.13,63211,76.89,11,10.63,33.42,2025-12-29T10:27:51.029134303Z,-138.52
,96,13.11,841.5,1.79,12.98,-0.07,149.6,-2.5,0.35,-0.47,1.37,71,120024,129347483,775366580,82.15,65389,-92.38,11,10.63,33.33,2025-12-29T10:27:54.106574392Z,172.1
,98,11.43,841.5,-4.28,10.58,-0.7,149.6,-1.15,-0.12,-0.58,1.37,77,120245,129347483,775366580,67.73,64146,99.29,11,10.63,33.38,2025-12-29T10:27:57.183814082Z,-173.87
,98,9.45,841.5,-1.59,9.24,-1.16,149.6,-0.83,-0.33,-0.25,1.37,75,119565,129347483,775366580,77.96,62392,126.01,11,10.63,33.47,2025-12-29T10:28:00.356710887Z,-158.4
,95,8.57,841.5,-0.56,8.55,-0.31,149.6,-1.13,-0.76,-0.08,1.37,79,118938,129347483,775366580,85.76,63183,118.89,11,10.63,33.33,2025-12-29T10:28:03.322902199Z,-145.83
,97,18.21,841.5,0.9,18.19,-0.16,149.6,-3.49,-0.76,-1.46,1.37,76,119677,129347483,775366580,87.14,64662,-99.86,11,10.63,33.38,2025-12-29T10:28:06.400066934Z,-167.76
,98,19.69,841.5,-1.54,19.61,-0.8,149.6,-3.66,-0.37,-1.69,1.37,79,120736,129347483,775366580,84.94,65074,117.31,11,10.63,33.33,2025-12-29T10:28:09.485807768Z,-174.25
,96,28.42,841.5,9.75,19.61,-18.11,149.6,-3.59,-3.28,-1.49,1.37,71,116369,129347483,775366580,43.64,62249,-151.71,11,10.63,33.38,2025-12-29T10:28:12.547698916Z,-137.58
,96,15.64,841.5,0.54,15.62,0.35,133.28,-3,-0.53,-0.95,1.37,79,118520,129345133,775366920,87.65,64049,-56.9,11,5.65,33.33,2025-12-29T10:28:15.628015965Z,-169.94
,96,18.91,841.5,-0.21,18.73,-2.54,145.11,-3.31,-1.08,-1.65,1.37,78,120554,129344815,775366750,82.26,64301,175.36,11,4.28,33.47,2025-12-29T10:28:18.694739233Z,-161.94
,98,22.36,857.2,-19.39,11.06,1.31,123.39,-3.96,0.15,-0.35,1.29,73,120430,129344495,775367061,29.64,64298,86.12,12,6.87,33.38,2025-12-29T10:28:21.763599715Z,177.85
,95,11.37,856.9,4.8,1.62,-10.18,123.39,0.5,-0.5,0.3,1.29,77,120637,129344331,775366965,8.2,64333,-154.77,12,1.91,33.38,2025-12-29T10:28:24.835117998Z,-45.11
,96,9.52,853.8,2.95,1.91,-8.85,123.39,0.59,-1.09,0.12,1.57,76,120897,129344070,775367145,11.54,64695,-161.59,12,1.72,33.28,2025-12-29T10:28:28.108870841Z,-61.69
,97,11.37,851.4,2.22,-0.59,-11.13,123.39,0.2,0.62,0.97,1.27,74,120215,129343876,775366998,-2.97,65493,-168.7,12,2.65,33.38,2025-12-29T10:28:31.203422996Z,72.15
,95,14.16,851.4,5.92,12.84,0.77,123.39,4.37,-0.4,1.56,1.27,75,116709,129343876,775366998,65.05,63836,-82.58,12,2.65,33.38,2025-12-29T10:28:34.244395743Z,-5.26
,98,19.44,851.4,6.43,17.79,-4.5,123.39,-1.64,-0.39,-1.18,1.27,72,120446,129343876,775366998,66.18,64058,-125,12,2.65,33.42,2025-12-29T10:28:37.433466886Z,-166.6
,97,22.57,851.4,-8.81,19.59,6.94,123.39,4.37,1.3,1.39,1.27,70,119442,129343876,775366998,60.21,62090,51.76,12,2.65,33.38,2025-12-29T10:28:40.505958836Z,16.52
,97,23.1,851.4,-10.1,6.87,19.61,123.39,0.24,-1.22,-0.22,1.27,79,119044,129343876,775366998,17.29,62389,27.25,12,2.65,33.33,2025-12-29T10:28:43.896498981Z,-78.96
,95,10.37,851.4,-1.01,10.12,-2.03,123.39,-0.56,0.09,-0.29,1.27,77,121230,129343876,775366998,77.37,65065,153.46,12,2.65,33.33,2025-12-29T10:28:47.785894803Z,170.85
,96,10.71,851.4,-0.35,10.3,-2.89,123.39,4.37,2.06,1.21,1.27,76,118726,129343876,775366998,74.25,61309,173.09,12,2.65,33.33,2025-12-29T10:28:54.762385397Z,25.23
,98,9.92,844.2,-0.74,9.83,-1.09,2.25,-1.25,-0.48,-0.03,1.16,73,119164,129342613,775365693,82.38,62753,145.67,12,1.17,33.28,2025-12-29T10:29:05.824805164Z,-159.02
,95,9.76,847,-1.81,9.24,-2.55,2.25,-0.49,-0.77,0.01,1.19,74,118866,129342426,775365143,71.29,62927,144.72,11,6.04,33.42,2025-12-29T10:29:09.500108698Z,-122.5
,95,6.4,847,-3.74,3.71,3.63,2.25,2.16,1.56,0.93,1.19,74,117695,129342426,775365143,35.44,62393,45.91,11,6.04,33.33,2025-12-29T10:29:13.379304543Z,35.9
,95,9.47,843.9,-2.07,9.24,0.43,2.25,-0.03,0.1,0.19,1.21,76,119294,129342101,775364826,77.13,62706,78.22,11,1.85,33.42,2025-12-29T10:29:16.460489809Z,107.02
,96,9.8,843.9,-0.53,9.63,-1.73,2.25,-0.57,-0.42,-0.08,1.21,77,115870,129342101,775364826,79.36,61011,163,11,1.85,33.33,2025-12-29T10:29:19.516693699Z,-143.52
,97,9.44,843.9,-2.65,9.04,0.64,2.25,0.37,0.08,0.4,1.21,71,119272,129342123,775364710,73.22,62364,76.49,11,1.89,33.28,2025-12-29T10:29:22.584293397Z,12.51
,96,9.91,843.9,-1.78,9.53,-2.04,2.25,-0.83,-0.42,-0.12,1.21,79,120796,129342045,775364656,74.11,64151,138.9,11,0.78,33.28,2025-12-29T10:29:25.649412868Z,-153.28
,96,8.31,849.8,-1.08,7.99,-1.99,2.25,-1.52,-0.43,-0.99,1.56,77,119468,129342115,775364493,74.18,61339,151.59,9,2.93,33.33,2025-12-29T10:29:28.723381575Z,-164.22
,97,3.82,851.1,-0.31,3.58,1.27,2.25,2.71,-0.43,1.02,1.56,79,116306,129342151,775364531,69.96,61800,13.88,9,3.32,33.28,2025-12-29T10:29:31.806617123Z,-9.07
,95,11.28,851.9,6.88,8.7,-2.04,2.25,-0.81,0.24,-0.43,1.56,74,118387,129342130,775364393,50.49,62516,-106.55,10,1.09,33.28,2025-12-29T10:29:34.865608617Z,163.3
,98,9.94,854,-1.33,9.49,-2.64,2.25,0.02,-0.51,0.19,1.7,75,120309,129342186,775364196,72.73,61071,153.29,11,1.09,33.24,2025-12-29T10:29:37.939693753Z,-87.97
,97,9.78,857.8,-2.52,9.37,1.25,2.25,0.23,-0.04,0.05,1.19,78,120174,129342068,775364133,73.31,63424,63.63,12,1.09,33.28,2025-12-29T10:29:41.025199803Z,-10.92
,96,9.78,859.6,-0.69,8.8,-4.22,2.25,-1.02,-0.72,-0.32,1.19,79,120922,129342038,775363986,64.09,63569,170.72,11,1.09,33.28,2025-12-29T10:29:44.34110288Z,-144.87
,98,25.39,859.6,-7.79,17.73,16.42,2.25,3.77,-0.78,1.63,1.19,78,120241,129342038,775363986,44.29,63956,25.39,11,1.09,33.38,2025-12-29T10:29:47.572047308Z,-11.76
,95,11.22,859.6,1.92,10.71,-2.76,2.25,-1.26,-2.11,-0.11,1.19,76,120667,129341436,775363545,72.57,63365,-145.18,11,0.8,33.33,2025-12-29T10:29:50.633566635Z,-120.73
,95,21.67,847.7,-5.58,7.35,19.61,84.26,-0.2,0.71,-0.48,1.09,78,120500,129341426,775363965,19.81,63317,15.88,12,5.74,33.33,2025-12-29T10:29:53.720218031Z,105.79
,98,8.53,849.1,-1.97,7.78,-2.89,95.21,0.2,4.37,-0.4,1.08,77,118105,129341250,775364313,65.8,62885,145.71,12,3.07,33.28,2025-12-29T10:29:56.775140234Z,87.4
,95,9.59,848.3,-0.07,9.39,-1.92,95.21,0.04,0.09,-0.18,1.08,74,118829,129341191,775364276,78.43,63555,177.93,12,0.41,33.38,2025-12-29T10:29:59.859714209Z,63.72
,97,11.24,848.9,1.52,11.1,-0.89,95.21,3,-0.15,1.05,1.08,71,119705,129341166,775364309,81.01,63737,-120.31,12,1.5,33.42,2025-12-29T10:30:03.158086076Z,-2.83
